Folder: sulfur-containing-metal-salts-detection/data/FL/FL/2023.4.27 (part 2)

File: 9号b-cds（2）.txt
Apr. 27, 2023   12:37:07
Cyclic Voltammetry
File: 9Data Source:  Experiment
Instrument Model:  CHI660E
Ref. Electrode: Ag/AgCl
Header:
Note:

Init E (V) = 0
High E (V) = 0
Low E (V) = -2
Init P/N = N
Scan Rate (V/s) = 0.1
Segment = 40
Sample Interval (V) = 0.001
Quiet Time (sec) = 5
Sensitivity (A/V) = 0.001

Segment 1:

Segment 2:

Segment 3:

Segment 4:

Segment 5:

Segment 6:

Segment 7:

Segment 8:

Segment 9:

Segment 10:

Segment 11:

Segment 12:

Segment 13:

Segment 14:

Segment 15:

Segment 16:

Segment 17:

Segment 18:

Segment 19:

Segment 20:

Segment 21:

Segment 22:

Segment 23:

Segment 24:

Segment 25:

Segment 26:

Segment 27:

Segment 28:

Segment 29:

Segment 30:

Segment 31:

Segment 32:

Segment 33:

Segment 34:

Segment 35:

Segment 36:

Segment 37:

Segment 38:

Segment 39:

Segment 40:

Potential/V, Current/A, Voltage/V, Time/s

0.000, -7.380e-7, 2.893e-2, 1.000e-2
-0.304, -9.984e-6, 1.886e-2, 3.050e+0
-0.608, -5.832e-5, 1.716e-2, 6.090e+0
-0.912, -2.295e-4, 3.750e-2, 9.130e+0
-1.216, -3.790e-4, 4.664e-2, 1.217e+1
-1.520, -3.838e-4, 5.158e-2, 1.521e+1
-1.824, -4.098e-4, 1.104e-1, 1.825e+1
-1.872, -2.895e-4, 9.390e-2, 2.129e+1
-1.568, -2.006e-4, 3.865e-2, 2.433e+1
-1.264, -1.400e-4, 2.971e-2, 2.737e+1
-0.960, -7.002e-5, 2.640e-2, 3.041e+1
-0.656, -1.832e-5, 2.021e-2, 3.345e+1
-0.352, -2.573e-6, 2.020e-2, 3.649e+1
-0.048, 1.106e-6, 2.095e-2, 3.953e+1
-0.256, -2.837e-6, 2.004e-2, 4.257e+1
-0.560, -1.858e-5, 2.000e-2, 4.561e+1
-0.864, -1.071e-4, 2.449e-2, 4.865e+1
-1.168, -2.437e-4, 3.505e-2, 5.169e+1
-1.472, -3.014e-4, 4.456e-2, 5.473e+1
-1.776, -3.446e-4, 8.368e-2, 5.777e+1
-1.920, -2.974e-4, 1.085e-1, 6.081e+1
-1.616, -1.829e-4, 3.582e-2, 6.385e+1
-1.312, -1.322e-4, 2.675e-2, 6.689e+1
-1.008, -6.980e-5, 2.319e-2, 6.993e+1
-0.704, -1.964e-5, 1.773e-2, 7.297e+1
-0.400, -2.811e-6, 1.862e-2, 7.601e+1
-0.096, 9.127e-7, 1.985e-2, 7.905e+1
-0.208, -1.610e-6, 2.046e-2, 8.209e+1
-0.512, -1.205e-5, 2.102e-2, 8.513e+1
-0.816, -8.092e-5, 2.294e-2, 8.817e+1
-1.120, -2.231e-4, 3.336e-2, 9.121e+1
-1.424, -3.091e-4, 4.323e-2, 9.425e+1
-1.728, -3.442e-4, 6.828e-2, 9.729e+1
-1.968, -3.557e-4, 1.436e-1, 1.003e+2
-1.664, -1.926e-4, 3.784e-2, 1.034e+2
-1.360, -1.405e-4, 2.400e-2, 1.064e+2
-1.056, -7.805e-5, 2.277e-2, 1.095e+2
-0.752, -2.414e-5, 2.002e-2, 1.125e+2
-0.448, -3.619e-6, 2.151e-2, 1.155e+2
-0.144, 6.149e-7, 2.064e-2, 1.186e+2
-0.160, -7.897e-7, 2.087e-2, 1.216e+2
-0.464, -8.174e-6, 1.876e-2, 1.247e+2
-0.768, -5.712e-5, 1.831e-2, 1.277e+2
-1.072, -1.904e-4, 2.906e-2, 1.307e+2
-1.376, -3.004e-4, 3.524e-2, 1.338e+2
-1.680, -3.387e-4, 6.105e-2, 1.368e+2
-1.984, -4.118e-4, 1.954e-1, 1.399e+2
-1.712, -2.004e-4, 4.136e-2, 1.429e+2
-1.408, -1.475e-4, 2.789e-2, 1.459e+2
-1.104, -8.608e-5, 2.533e-2, 1.490e+2
-0.800, -2.917e-5, 2.094e-2, 1.520e+2
-0.496, -4.582e-6, 1.874e-2, 1.550e+2
-0.192, 3.602e-7, 1.923e-2, 1.581e+2
-0.112, -1.824e-7, 1.811e-2, 1.611e+2
-0.416, -5.725e-6, 1.738e-2, 1.642e+2
-0.720, -3.969e-5, 1.667e-2, 1.672e+2
-1.024, -1.600e-4, 2.882e-2, 1.702e+2
-1.328, -2.906e-4, 3.494e-2, 1.733e+2
-1.632, -3.307e-4, 5.182e-2, 1.763e+2
-1.936, -3.848e-4, 1.685e-1, 1.794e+2
-1.760, -2.119e-4, 5.162e-2, 1.824e+2
-1.456, -1.542e-4, 2.924e-2, 1.854e+2
-1.152, -9.386e-5, 2.138e-2, 1.885e+2
-0.848, -3.471e-5, 1.887e-2, 1.915e+2
-0.544, -5.965e-6, 1.641e-2, 1.945e+2
-0.240, -4.627e-9, 1.739e-2, 1.976e+2
-0.064, 3.676e-7, 1.682e-2, 2.006e+2
-0.368, -4.042e-6, 1.767e-2, 2.037e+2
-0.672, -2.723e-5, 1.947e-2, 2.067e+2
-0.976, -1.304e-4, 2.571e-2, 2.097e+2
-1.280, -2.738e-4, 3.404e-2, 2.128e+2
-1.584, -3.164e-4, 4.666e-2, 2.158e+2
-1.888, -3.645e-4, 1.441e-1, 2.188e+2
-1.808, -2.255e-4, 6.543e-2, 2.219e+2
-1.504, -1.610e-4, 2.679e-2, 2.249e+2
-1.200, -1.021e-4, 2.120e-2, 2.280e+2
-0.896, -4.108e-5, 1.883e-2, 2.310e+2
-0.592, -7.877e-6, 1.722e-2, 2.340e+2
-0.288, -4.174e-7, 1.839e-2, 2.371e+2
-0.016, 1.036e-6, 1.804e-2, 2.401e+2
-0.320, -2.744e-6, 2.055e-2, 2.432e+2
-0.624, -1.873e-5, 1.933e-2, 2.462e+2
-0.928, -1.038e-4, 2.764e-2, 2.492e+2
-1.232, -2.525e-4, 2.879e-2, 2.523e+2
-1.536, -3.075e-4, 3.945e-2, 2.553e+2
-1.840, -3.506e-4, 1.136e-1, 2.584e+2
-1.856, -2.437e-4, 6.929e-2, 2.614e+2
-1.552, -1.678e-4, 2.847e-2, 2.644e+2
-1.248, -1.101e-4, 2.272e-2, 2.675e+2
-0.944, -4.814e-5, 2.068e-2, 2.705e+2
-0.640, -1.026e-5, 2.018e-2, 2.736e+2
-0.336, -8.487e-7, 1.926e-2, 2.766e+2
-0.032, 1.469e-6, 1.977e-2, 2.797e+2
-0.272, -1.797e-6, 1.885e-2, 2.827e+2
-0.576, -1.286e-5, 1.768e-2, 2.857e+2
-0.880, -8.109e-5, 2.276e-2, 2.888e+2
-1.184, -2.271e-4, 2.452e-2, 2.918e+2
-1.488, -3.042e-4, 3.794e-2, 2.949e+2
-1.792, -3.405e-4, 9.253e-2, 2.979e+2
-1.904, -2.702e-4, 9.686e-2, 3.010e+2
-1.600, -1.775e-4, 3.328e-2, 3.040e+2
-1.296, -1.209e-4, 2.409e-2, 3.070e+2
-0.992, -5.818e-5, 2.402e-2, 3.101e+2
-0.688, -1.455e-5, 1.940e-2, 3.131e+2
-0.384, -1.683e-6, 2.040e-2, 3.162e+2
-0.080, 1.161e-6, 2.018e-2, 3.192e+2
-0.224, -1.330e-6, 1.886e-2, 3.223e+2
-0.528, -9.895e-6, 2.062e-2, 3.253e+2
-0.832, -6.699e-5, 2.157e-2, 3.283e+2
-1.136, -2.067e-4, 2.863e-2, 3.314e+2
-1.440, -3.029e-4, 3.574e-2, 3.344e+2
-1.744, -3.387e-4, 8.269e-2, 3.375e+2
-1.952, -3.174e-4, 1.470e-1, 3.405e+2
-1.648, -1.845e-4, 3.611e-2, 3.436e+2
-1.344, -1.291e-4, 2.388e-2, 3.466e+2
-1.040, -6.650e-5, 2.291e-2, 3.496e+2
-0.736, -1.846e-5, 1.981e-2, 3.527e+2
-0.432, -2.331e-6, 1.830e-2, 3.557e+2
-0.128, 9.108e-7, 2.112e-2, 3.588e+2
-0.176, -6.076e-7, 1.879e-2, 3.618e+2
-0.480, -6.909e-6, 2.006e-2, 3.649e+2
-0.784, -4.901e-5, 1.680e-2, 3.679e+2
-1.088, -1.758e-4, 2.413e-2, 3.709e+2
-1.392, -2.929e-4, 3.153e-2, 3.740e+2
-1.696, -3.302e-4, 6.415e-2, 3.770e+2
-2.000, -3.947e-4, 2.316e-1, 3.801e+2
-1.696, -1.899e-4, 4.046e-2, 3.831e+2
-1.392, -1.349e-4, 2.524e-2, 3.862e+2
-1.088, -7.359e-5, 2.191e-2, 3.892e+2
-0.784, -2.265e-5, 1.802e-2, 3.922e+2
-0.480, -3.172e-6, 1.608e-2, 3.953e+2
-0.176, 6.531e-7, 1.665e-2, 3.983e+2
-0.128, -8.030e-8, 1.636e-2, 4.014e+2
-0.432, -4.995e-6, 1.617e-2, 4.044e+2
-0.736, -3.474e-5, 1.737e-2, 4.075e+2
-1.040, -1.468e-4, 2.543e-2, 4.105e+2
-1.344, -2.815e-4, 3.238e-2, 4.135e+2
-1.648, -3.224e-4, 5.634e-2, 4.166e+2
-1.952, -3.704e-4, 2.083e-1, 4.196e+2
-1.744, -2.119e-4, 4.625e-2, 4.227e+2
-1.440, -1.544e-4, 2.216e-2, 4.257e+2
-1.136, -9.001e-5, 1.799e-2, 4.288e+2
-0.832, -3.103e-5, 1.712e-2, 4.318e+2
-0.528, -4.971e-6, 1.777e-2, 4.348e+2
-0.224, 2.181e-7, 1.862e-2, 4.379e+2
-0.080, 3.282e-7, 1.836e-2, 4.409e+2
-0.384, -3.893e-6, 1.929e-2, 4.440e+2
-0.688, -2.654e-5, 1.952e-2, 4.470e+2
-0.992, -1.293e-4, 2.370e-2, 4.501e+2
-1.296, -2.842e-4, 2.723e-2, 4.531e+2
-1.600, -3.294e-4, 4.580e-2, 4.561e+2
-1.904, -3.708e-4, 1.773e-1, 4.592e+2
-1.792, -2.239e-4, 5.747e-2, 4.622e+2
-1.488, -1.602e-4, 2.601e-2, 4.653e+2
-1.184, -9.725e-5, 2.063e-2, 4.683e+2
-0.880, -3.645e-5, 2.103e-2, 4.714e+2
-0.576, -6.388e-6, 1.948e-2, 4.744e+2
-0.272, -8.092e-8, 1.898e-2, 4.774e+2
-0.032, 8.942e-7, 1.655e-2, 4.805e+2
-0.336, -2.662e-6, 1.546e-2, 4.835e+2
-0.640, -1.795e-5, 1.608e-2, 4.866e+2
-0.944, -1.000e-4, 2.266e-2, 4.896e+2
-1.248, -2.548e-4, 2.965e-2, 4.927e+2
-1.552, -3.137e-4, 4.017e-2, 4.957e+2
-1.856, -3.530e-4, 1.434e-1, 4.987e+2
-1.840, -2.348e-4, 7.000e-2, 5.018e+2
-1.536, -1.639e-4, 2.908e-2, 5.048e+2
-1.232, -1.034e-4, 2.098e-2, 5.079e+2
-0.928, -4.205e-5, 1.717e-2, 5.109e+2
-0.624, -8.225e-6, 1.504e-2, 5.140e+2
-0.320, -4.267e-7, 1.564e-2, 5.170e+2
-0.016, 1.541e-6, 1.617e-2, 5.200e+2
-0.288, -1.771e-6, 1.639e-2, 5.231e+2
-0.592, -1.229e-5, 1.665e-2, 5.261e+2
-0.896, -7.695e-5, 1.951e-2, 5.292e+2
-1.200, -2.267e-4, 2.413e-2, 5.322e+2
-1.504, -3.088e-4, 3.357e-2, 5.353e+2
-1.808, -3.414e-4, 1.207e-1, 5.383e+2
-1.888, -2.557e-4, 9.887e-2, 5.413e+2
-1.584, -1.714e-4, 2.936e-2, 5.444e+2
-1.280, -1.121e-4, 2.197e-2, 5.474e+2
-0.976, -4.952e-5, 2.025e-2, 5.505e+2
-0.672, -1.088e-5, 1.839e-2, 5.535e+2
-0.368, -9.053e-7, 1.837e-2, 5.566e+2
-0.064, 1.321e-6, 1.732e-2, 5.596e+2
-0.240, -1.120e-6, 1.717e-2, 5.626e+2
-0.544, -8.609e-6, 1.608e-2, 5.657e+2
-0.848, -5.935e-5, 1.807e-2, 5.687e+2
-1.152, -1.981e-4, 2.357e-2, 5.718e+2
-1.456, -3.048e-4, 3.257e-2, 5.748e+2
-1.760, -3.334e-4, 9.322e-2, 5.779e+2
-1.936, -2.885e-4, 1.293e-1, 5.809e+2
-1.632, -1.802e-4, 3.093e-2, 5.839e+2
-1.328, -1.214e-4, 2.227e-2, 5.870e+2
-1.024, -5.783e-5, 1.960e-2, 5.900e+2
-0.720, -1.427e-5, 1.881e-2, 5.931e+2
-0.416, -1.497e-6, 1.685e-2, 5.961e+2
-0.112, 1.130e-6, 1.641e-2, 5.992e+2
-0.192, -5.270e-7, 1.707e-2, 6.022e+2
-0.496, -6.172e-6, 1.637e-2, 6.052e+2
-0.800, -4.454e-5, 1.877e-2, 6.083e+2
-1.104, -1.692e-4, 2.615e-2, 6.113e+2
-1.408, -2.982e-4, 3.251e-2, 6.144e+2
-1.712, -3.291e-4, 7.791e-2, 6.174e+2
-1.984, -3.452e-4, 2.154e-1, 6.205e+2
-1.680, -1.885e-4, 3.625e-2, 6.235e+2
-1.376, -1.300e-4, 2.019e-2, 6.266e+2
-1.072, -6.650e-5, 1.740e-2, 6.296e+2
-0.768, -1.847e-5, 1.572e-2, 6.326e+2
-0.464, -2.229e-6, 1.524e-2, 6.357e+2
-0.160, 8.850e-7, 1.675e-2, 6.387e+2
-0.144, -2.431e-8, 1.648e-2, 6.418e+2
-0.448, -4.468e-6, 1.799e-2, 6.448e+2
-0.752, -3.216e-5, 1.847e-2, 6.479e+2
-1.056, -1.414e-4, 2.443e-2, 6.509e+2
-1.360, -2.862e-4, 2.883e-2, 6.539e+2
-1.664, -3.245e-4, 5.900e-2, 6.570e+2
-1.968, -3.667e-4, 2.462e-1, 6.600e+2
-1.728, -1.981e-4, 4.241e-2, 6.631e+2
-1.424, -1.390e-4, 2.467e-2, 6.661e+2
-1.120, -7.569e-5, 2.227e-2, 6.692e+2
-0.816, -2.347e-5, 1.684e-2, 6.722e+2
-0.512, -3.230e-6, 1.600e-2, 6.752e+2
-0.208, 6.143e-7, 1.596e-2, 6.783e+2
-0.096, 3.916e-7, 1.474e-2, 6.813e+2
-0.400, -3.283e-6, 1.598e-2, 6.844e+2
-0.704, -2.296e-5, 1.643e-2, 6.874e+2
-1.008, -1.154e-4, 2.297e-2, 6.905e+2
-1.312, -2.690e-4, 2.941e-2, 6.935e+2
-1.616, -3.173e-4, 5.070e-2, 6.965e+2
-1.920, -3.541e-4, 1.973e-1, 6.996e+2
-1.776, -2.094e-4, 5.187e-2, 7.026e+2
-1.472, -1.479e-4, 2.212e-2, 7.057e+2
-1.168, -8.515e-5, 1.824e-2, 7.087e+2
-0.864, -2.916e-5, 1.609e-2, 7.118e+2
-0.560, -4.545e-6, 1.568e-2, 7.148e+2
-0.256, 2.968e-7, 1.595e-2, 7.178e+2
-0.048, 8.081e-7, 1.616e-2, 7.209e+2
-0.352, -2.345e-6, 1.678e-2, 7.239e+2
-0.656, -1.631e-5, 1.651e-2, 7.270e+2
-0.960, -9.234e-5, 2.447e-2, 7.300e+2
-1.264, -2.474e-4, 2.809e-2, 7.331e+2
-1.568, -3.111e-4, 4.186e-2, 7.361e+2
-1.872, -3.450e-4, 1.722e-1, 7.391e+2
-1.824, -2.230e-4, 6.953e-2, 7.422e+2
-1.520, -1.566e-4, 2.882e-2, 7.452e+2
-1.216, -9.474e-5, 2.203e-2, 7.483e+2
-0.912, -3.570e-5, 1.994e-2, 7.513e+2
-0.608, -6.297e-6, 1.811e-2, 7.544e+2
-0.304, -5.446e-8, 1.669e-2, 7.574e+2
-0.000, 1.557e-6, 1.585e-2, 7.604e+2
-0.304, -1.625e-6, 1.509e-2, 7.635e+2
-0.608, -1.157e-5, 1.524e-2, 7.665e+2
-0.912, -7.264e-5, 2.053e-2, 7.696e+2
-1.216, -2.224e-4, 2.497e-2, 7.726e+2
-1.520, -3.082e-4, 3.471e-2, 7.757e+2
-1.824, -3.356e-4, 1.322e-1, 7.787e+2
-1.872, -2.411e-4, 8.531e-2, 7.817e+2
-1.568, -1.654e-4, 2.970e-2, 7.848e+2
-1.264, -1.044e-4, 2.320e-2, 7.878e+2
-0.960, -4.307e-5, 2.055e-2, 7.909e+2
-0.656, -8.620e-6, 1.807e-2, 7.939e+2
-0.352, -4.722e-7, 1.876e-2, 7.970e+2
-0.048, 1.487e-6, 1.837e-2, 8.000e+2
-0.002, 1.679e-6, 1.912e-2, 8.005e+2

File: 10号b-cds 湖水.txt
Apr. 27, 2023   13:32:53
Cyclic Voltammetry
File: 10Data Source:  Experiment
Instrument Model:  CHI660E
Ref. Electrode: Ag/AgCl
Header:
Note:

Init E (V) = 0
High E (V) = 0
Low E (V) = -2
Init P/N = N
Scan Rate (V/s) = 0.1
Segment = 40
Sample Interval (V) = 0.001
Quiet Time (sec) = 5
Sensitivity (A/V) = 0.001

Segment 1:

Segment 2:

Segment 3:

Segment 4:

Segment 5:

Segment 6:

Segment 7:

Segment 8:

Segment 9:

Segment 10:

Segment 11:

Segment 12:

Segment 13:

Segment 14:

Segment 15:

Segment 16:

Segment 17:

Segment 18:

Segment 19:

Segment 20:

Segment 21:

Segment 22:

Segment 23:

Segment 24:

Segment 25:

Segment 26:

Segment 27:

Segment 28:

Segment 29:

Segment 30:

Segment 31:

Segment 32:

Segment 33:

Segment 34:

Segment 35:

Segment 36:

Segment 37:

Segment 38:

Segment 39:

Segment 40:

Potential/V, Current/A, Voltage/V, Time/s

0.000, 1.185e-5, 1.676e-2, 1.000e-2
-0.301, 2.857e-6, 1.852e-2, 3.020e+0
-0.602, -4.950e-7, 1.663e-2, 6.030e+0
-0.903, -5.148e-6, 1.670e-2, 9.040e+0
-1.204, -1.440e-5, 1.998e-2, 1.205e+1
-1.505, -3.079e-5, 2.419e-2, 1.506e+1
-1.806, -4.881e-5, 3.299e-2, 1.807e+1
-1.893, -3.633e-5, 2.772e-2, 2.108e+1
-1.592, -1.320e-5, 1.838e-2, 2.409e+1
-1.291, -4.994e-6, 1.728e-2, 2.710e+1
-0.990, -2.550e-7, 1.635e-2, 3.011e+1
-0.689, 3.845e-6, 1.935e-2, 3.312e+1
-0.388, 7.695e-6, 1.563e-2, 3.613e+1
-0.087, 1.020e-5, 1.852e-2, 3.914e+1
-0.214, 4.808e-6, 1.584e-2, 4.215e+1
-0.515, 8.592e-7, 1.849e-2, 4.516e+1
-0.816, -2.621e-6, 1.698e-2, 4.817e+1
-1.117, -8.988e-6, 1.811e-2, 5.118e+1
-1.418, -2.179e-5, 2.100e-2, 5.419e+1
-1.719, -3.951e-5, 2.199e-2, 5.720e+1
-1.980, -5.197e-5, 7.295e-2, 6.021e+1
-1.679, -1.611e-5, 1.739e-2, 6.322e+1
-1.378, -6.355e-6, 1.833e-2, 6.623e+1
-1.077, -1.202e-6, 1.830e-2, 6.924e+1
-0.776, 2.819e-6, 1.599e-2, 7.225e+1
-0.475, 6.840e-6, 2.082e-2, 7.526e+1
-0.174, 9.792e-6, 1.544e-2, 7.827e+1
-0.127, 6.491e-6, 1.844e-2, 8.128e+1
-0.428, 1.994e-6, 1.848e-2, 8.429e+1
-0.729, -1.379e-6, 1.697e-2, 8.730e+1
-1.030, -6.185e-6, 1.910e-2, 9.031e+1
-1.331, -1.645e-5, 1.740e-2, 9.332e+1
-1.632, -3.310e-5, 2.391e-2, 9.633e+1
-1.933, -5.215e-5, 5.657e-2, 9.934e+1
-1.766, -2.070e-5, 1.806e-2, 1.024e+2
-1.465, -8.117e-6, 1.878e-2, 1.054e+2
-1.164, -2.421e-6, 1.788e-2, 1.084e+2
-0.863, 1.819e-6, 1.856e-2, 1.114e+2
-0.562, 5.798e-6, 1.628e-2, 1.144e+2
-0.261, 9.118e-6, 1.696e-2, 1.174e+2
-0.040, 8.887e-6, 1.924e-2, 1.204e+2
-0.341, 3.067e-6, 1.514e-2, 1.234e+2
-0.642, -3.295e-7, 1.854e-2, 1.264e+2
-0.943, -4.259e-6, 1.663e-2, 1.294e+2
-1.244, -1.224e-5, 2.015e-2, 1.325e+2
-1.545, -2.718e-5, 2.118e-2, 1.355e+2
-1.846, -4.500e-5, 3.519e-2, 1.385e+2
-1.853, -2.760e-5, 2.163e-2, 1.415e+2
-1.552, -1.039e-5, 1.971e-2, 1.445e+2
-1.251, -3.683e-6, 1.775e-2, 1.475e+2
-0.950, 6.641e-7, 1.948e-2, 1.505e+2
-0.649, 4.641e-6, 1.532e-2, 1.535e+2
-0.348, 8.262e-6, 1.941e-2, 1.565e+2
-0.047, 1.067e-5, 1.772e-2, 1.595e+2
-0.254, 4.290e-6, 1.533e-2, 1.625e+2
-0.555, 5.952e-7, 1.996e-2, 1.655e+2
-0.856, -2.818e-6, 1.603e-2, 1.686e+2
-1.157, -9.025e-6, 1.769e-2, 1.716e+2
-1.458, -2.161e-5, 2.320e-2, 1.746e+2
-1.759, -3.904e-5, 2.235e-2, 1.776e+2
-1.940, -3.941e-5, 4.068e-2, 1.806e+2
-1.639, -1.329e-5, 1.889e-2, 1.836e+2
-1.338, -5.084e-6, 1.753e-2, 1.866e+2
-1.037, -4.008e-7, 1.845e-2, 1.896e+2
-0.736, 3.476e-6, 1.534e-2, 1.926e+2
-0.435, 7.395e-6, 1.787e-2, 1.956e+2
-0.134, 1.010e-5, 1.680e-2, 1.986e+2
-0.167, 5.771e-6, 1.802e-2, 2.016e+2
-0.468, 1.597e-6, 1.738e-2, 2.047e+2
-0.769, -1.647e-6, 1.527e-2, 2.077e+2
-1.070, -6.444e-6, 1.913e-2, 2.107e+2
-1.371, -1.678e-5, 1.774e-2, 2.137e+2
-1.672, -3.341e-5, 2.342e-2, 2.167e+2
-1.973, -5.275e-5, 7.949e-2, 2.197e+2
-1.726, -1.728e-5, 1.869e-2, 2.227e+2
-1.425, -6.666e-6, 2.026e-2, 2.257e+2
-1.124, -1.573e-6, 1.452e-2, 2.287e+2
-0.823, 2.398e-6, 1.921e-2, 2.317e+2
-0.522, 6.410e-6, 1.678e-2, 2.347e+2
-0.221, 9.463e-6, 1.648e-2, 2.377e+2
-0.080, 7.771e-6, 1.766e-2, 2.408e+2
-0.381, 2.581e-6, 1.658e-2, 2.438e+2
-0.682, -5.854e-7, 1.806e-2, 2.468e+2
-0.983, -4.602e-6, 1.826e-2, 2.498e+2
-1.284, -1.268e-5, 1.965e-2, 2.528e+2
-1.585, -2.777e-5, 2.087e-2, 2.558e+2
-1.886, -4.586e-5, 4.089e-2, 2.588e+2
-1.813, -2.302e-5, 2.005e-2, 2.618e+2
-1.512, -8.806e-6, 1.958e-2, 2.648e+2
-1.211, -2.803e-6, 1.614e-2, 2.679e+2
-0.910, 1.328e-6, 1.853e-2, 2.709e+2
-0.609, 5.259e-6, 1.623e-2, 2.739e+2
-0.308, 8.710e-6, 1.997e-2, 2.769e+2
-0.007, 1.090e-5, 1.532e-2, 2.799e+2
-0.294, 3.798e-6, 1.854e-2, 2.829e+2
-0.595, 3.171e-7, 1.668e-2, 2.859e+2
-0.896, -3.146e-6, 1.747e-2, 2.889e+2
-1.197, -9.480e-6, 1.919e-2, 2.920e+2
-1.498, -2.249e-5, 2.009e-2, 2.950e+2
-1.799, -3.999e-5, 2.499e-2, 2.980e+2
-1.900, -3.190e-5, 2.719e-2, 3.010e+2
-1.599, -1.132e-5, 1.535e-2, 3.040e+2
-1.298, -4.133e-6, 2.003e-2, 3.070e+2
-0.997, 2.329e-7, 1.573e-2, 3.100e+2
-0.696, 4.188e-6, 1.864e-2, 3.130e+2
-0.395, 7.865e-6, 1.611e-2, 3.161e+2
-0.094, 1.041e-5, 1.864e-2, 3.191e+2
-0.207, 5.138e-6, 1.757e-2, 3.221e+2
-0.508, 1.214e-6, 1.796e-2, 3.251e+2
-0.809, -2.012e-6, 1.725e-2, 3.281e+2
-1.110, -6.911e-6, 1.929e-2, 3.311e+2
-1.411, -1.760e-5, 1.754e-2, 3.341e+2
-1.712, -3.448e-5, 2.680e-2, 3.371e+2
-1.987, -4.876e-5, 7.645e-2, 3.402e+2
-1.686, -1.477e-5, 1.779e-2, 3.432e+2
-1.385, -5.614e-6, 1.989e-2, 3.462e+2
-1.084, -8.930e-7, 1.688e-2, 3.492e+2
-0.783, 3.046e-6, 1.884e-2, 3.522e+2
-0.482, 6.993e-6, 1.767e-2, 3.552e+2
-0.181, 9.735e-6, 1.616e-2, 3.582e+2
-0.120, 6.852e-6, 1.821e-2, 3.613e+2
-0.421, 2.205e-6, 1.584e-2, 3.643e+2
-0.722, -1.030e-6, 1.876e-2, 3.673e+2
-1.023, -4.946e-6, 1.866e-2, 3.703e+2
-1.324, -1.352e-5, 1.827e-2, 3.733e+2
-1.625, -2.891e-5, 2.342e-2, 3.763e+2
-1.926, -4.782e-5, 4.648e-2, 3.793e+2
-1.773, -1.960e-5, 2.083e-2, 3.823e+2
-1.472, -7.428e-6, 1.757e-2, 3.854e+2
-1.171, -2.061e-6, 1.822e-2, 3.884e+2
-0.870, 1.997e-6, 1.622e-2, 3.914e+2
-0.569, 5.903e-6, 1.739e-2, 3.944e+2
-0.268, 9.143e-6, 1.787e-2, 3.974e+2
-0.033, 9.242e-6, 1.767e-2, 4.004e+2
-0.334, 3.351e-6, 1.829e-2, 4.034e+2
-0.635, -2.431e-8, 1.641e-2, 4.064e+2
-0.936, -3.432e-6, 1.933e-2, 4.095e+2
-1.237, -1.018e-5, 1.848e-2, 4.125e+2
-1.538, -2.369e-5, 2.306e-2, 4.155e+2
-1.839, -4.170e-5, 2.805e-2, 4.185e+2
-1.860, -2.669e-5, 2.469e-2, 4.215e+2
-1.559, -9.884e-6, 1.746e-2, 4.245e+2
-1.258, -3.321e-6, 1.824e-2, 4.275e+2
-0.957, 8.629e-7, 1.735e-2, 4.305e+2
-0.656, 4.818e-6, 1.705e-2, 4.336e+2
-0.355, 8.321e-6, 1.763e-2, 4.366e+2
-0.054, 1.068e-5, 1.666e-2, 4.396e+2
-0.247, 4.575e-6, 1.890e-2, 4.426e+2
-0.548, 8.561e-7, 1.644e-2, 4.456e+2
-0.849, -2.335e-6, 1.889e-2, 4.486e+2
-1.150, -7.502e-6, 1.665e-2, 4.516e+2
-1.451, -1.894e-5, 2.082e-2, 4.547e+2
-1.752, -3.612e-5, 2.347e-2, 4.577e+2
-1.947, -3.860e-5, 4.401e-2, 4.607e+2
-1.646, -1.269e-5, 1.732e-2, 4.637e+2
-1.345, -4.751e-6, 1.750e-2, 4.667e+2
-1.044, -1.437e-7, 1.738e-2, 4.697e+2
-0.743, 3.589e-6, 1.644e-2, 4.727e+2
-0.442, 7.480e-6, 1.881e-2, 4.757e+2
-0.141, 1.009e-5, 1.572e-2, 4.788e+2
-0.160, 6.134e-6, 1.865e-2, 4.818e+2
-0.461, 1.789e-6, 1.528e-2, 4.848e+2
-0.762, -1.304e-6, 1.962e-2, 4.878e+2
-1.063, -5.469e-6, 1.654e-2, 4.908e+2
-1.364, -1.450e-5, 2.156e-2, 4.938e+2
-1.665, -3.062e-5, 2.047e-2, 4.968e+2
-1.966, -4.977e-5, 7.142e-2, 4.998e+2
-1.733, -1.691e-5, 1.818e-2, 5.029e+2
-1.432, -6.335e-6, 2.017e-2, 5.059e+2
-1.131, -1.418e-6, 1.688e-2, 5.089e+2
-0.830, 2.565e-6, 1.909e-2, 5.119e+2
-0.529, 6.466e-6, 1.569e-2, 5.149e+2
-0.228, 9.448e-6, 1.960e-2, 5.179e+2
-0.073, 8.056e-6, 1.516e-2, 5.209e+2
-0.374, 2.811e-6, 1.901e-2, 5.239e+2
-0.675, -4.058e-7, 1.512e-2, 5.270e+2
-0.976, -3.909e-6, 1.901e-2, 5.300e+2
-1.277, -1.100e-5, 1.767e-2, 5.330e+2
-1.578, -2.523e-5, 2.124e-2, 5.360e+2
-1.879, -4.369e-5, 3.467e-2, 5.390e+2
-1.820, -2.265e-5, 1.867e-2, 5.420e+2
-1.519, -8.391e-6, 1.969e-2, 5.450e+2
-1.218, -2.578e-6, 1.591e-2, 5.481e+2
-0.917, 1.489e-6, 1.953e-2, 5.511e+2
-0.616, 5.386e-6, 1.510e-2, 5.541e+2
-0.315, 8.783e-6, 1.828e-2, 5.571e+2
-0.014, 1.090e-5, 1.606e-2, 5.601e+2
-0.287, 4.072e-6, 1.771e-2, 5.631e+2
-0.588, 4.402e-7, 1.858e-2, 5.661e+2
-0.889, -2.714e-6, 1.597e-2, 5.691e+2
-1.190, -8.208e-6, 1.861e-2, 5.722e+2
-1.491, -2.020e-5, 2.042e-2, 5.752e+2
-1.792, -3.792e-5, 2.574e-2, 5.782e+2
-1.907, -3.165e-5, 3.072e-2, 5.812e+2
-1.606, -1.108e-5, 1.544e-2, 5.842e+2
-1.305, -3.892e-6, 1.919e-2, 5.872e+2
-1.004, 3.596e-7, 1.509e-2, 5.902e+2
-0.703, 4.266e-6, 1.828e-2, 5.932e+2
-0.402, 7.929e-6, 1.882e-2, 5.963e+2
-0.101, 1.041e-5, 1.559e-2, 5.993e+2
-0.200, 5.414e-6, 1.804e-2, 6.023e+2
-0.501, 1.337e-6, 1.707e-2, 6.053e+2
-0.802, -1.700e-6, 1.689e-2, 6.083e+2
-1.103, -6.118e-6, 1.961e-2, 6.113e+2
-1.404, -1.584e-5, 1.677e-2, 6.143e+2
-1.705, -3.247e-5, 2.484e-2, 6.174e+2
-1.994, -4.957e-5, 8.691e-2, 6.204e+2
-1.693, -1.453e-5, 2.092e-2, 6.234e+2
-1.392, -5.411e-6, 1.994e-2, 6.264e+2
-1.091, -7.041e-7, 1.467e-2, 6.294e+2
-0.790, 3.126e-6, 1.975e-2, 6.324e+2
-0.489, 7.019e-6, 1.859e-2, 6.354e+2
-0.188, 9.811e-6, 1.749e-2, 6.384e+2
-0.113, 7.109e-6, 1.789e-2, 6.415e+2
-0.414, 2.375e-6, 1.613e-2, 6.445e+2
-0.715, -7.146e-7, 1.843e-2, 6.475e+2
-1.016, -4.451e-6, 1.729e-2, 6.505e+2
-1.317, -1.207e-5, 1.872e-2, 6.535e+2
-1.618, -2.695e-5, 2.320e-2, 6.565e+2
-1.919, -4.580e-5, 4.732e-2, 6.595e+2
-1.780, -1.932e-5, 2.076e-2, 6.625e+2
-1.479, -7.298e-6, 1.735e-2, 6.656e+2
-1.178, -1.855e-6, 1.658e-2, 6.686e+2
-0.877, 2.031e-6, 1.906e-2, 6.716e+2
-0.576, 5.953e-6, 1.435e-2, 6.746e+2
-0.275, 9.108e-6, 1.933e-2, 6.776e+2
-0.026, 9.589e-6, 1.551e-2, 6.806e+2
-0.327, 3.488e-6, 1.751e-2, 6.836e+2
-0.628, 5.074e-8, 1.859e-2, 6.866e+2
-0.929, -3.117e-6, 1.538e-2, 6.897e+2
-1.230, -9.169e-6, 2.028e-2, 6.927e+2
-1.531, -2.190e-5, 1.747e-2, 6.957e+2
-1.832, -4.007e-5, 3.019e-2, 6.987e+2
-1.867, -2.660e-5, 2.384e-2, 7.017e+2
-1.566, -9.563e-6, 1.780e-2, 7.047e+2
-1.265, -3.179e-6, 1.812e-2, 7.077e+2
-0.964, 9.976e-7, 1.507e-2, 7.108e+2
-0.663, 4.824e-6, 1.885e-2, 7.138e+2
-0.362, 8.387e-6, 1.539e-2, 7.168e+2
-0.061, 1.065e-5, 1.852e-2, 7.198e+2
-0.240, 4.761e-6, 1.577e-2, 7.228e+2
-0.541, 9.539e-7, 1.722e-2, 7.258e+2
-0.842, -2.074e-6, 1.685e-2, 7.288e+2
-1.143, -6.841e-6, 1.738e-2, 7.318e+2
-1.444, -1.727e-5, 2.020e-2, 7.349e+2
-1.745, -3.461e-5, 2.178e-2, 7.379e+2
-1.954, -3.909e-5, 4.824e-2, 7.409e+2
-1.653, -1.260e-5, 1.643e-2, 7.439e+2
-1.352, -4.530e-6, 2.002e-2, 7.469e+2
-1.051, -1.252e-7, 1.467e-2, 7.499e+2
-0.750, 3.770e-6, 1.951e-2, 7.529e+2
-0.449, 7.462e-6, 1.551e-2, 7.559e+2
-0.148, 1.013e-5, 1.882e-2, 7.590e+2
-0.153, 6.300e-6, 1.631e-2, 7.620e+2
-0.454, 1.924e-6, 1.723e-2, 7.650e+2
-0.755, -1.158e-6, 1.803e-2, 7.680e+2
-1.056, -5.013e-6, 1.613e-2, 7.710e+2
-1.357, -1.342e-5, 1.972e-2, 7.740e+2
-1.658, -2.902e-5, 2.032e-2, 7.770e+2
-1.959, -4.874e-5, 6.635e-2, 7.800e+2
-1.740, -1.680e-5, 1.896e-2, 7.831e+2
-1.439, -6.258e-6, 1.786e-2, 7.861e+2
-1.138, -1.252e-6, 1.774e-2, 7.891e+2
-0.837, 2.685e-6, 1.778e-2, 7.921e+2
-0.536, 6.592e-6, 1.646e-2, 7.951e+2
-0.235, 9.474e-6, 1.762e-2, 7.981e+2
-0.002, 1.109e-5, 1.676e-2, 8.005e+2