Folder: sulfur-containing-metal-salts-detection/data/FL/FL/2023.4.27 (part 3)

File: 10号b-cds.txt
Apr. 27, 2023   12:59:57
Cyclic Voltammetry
File: 10Data Source:  Experiment
Instrument Model:  CHI660E
Ref. Electrode: Ag/AgCl
Header:
Note:

Init E (V) = 0
High E (V) = 0
Low E (V) = -2
Init P/N = N
Scan Rate (V/s) = 0.1
Segment = 40
Sample Interval (V) = 0.001
Quiet Time (sec) = 5
Sensitivity (A/V) = 0.001

Segment 1:

Segment 2:

Segment 3:

Segment 4:

Segment 5:

Segment 6:

Segment 7:

Segment 8:

Segment 9:

Segment 10:

Segment 11:

Segment 12:

Segment 13:

Segment 14:

Segment 15:

Segment 16:

Segment 17:

Segment 18:

Segment 19:

Segment 20:

Segment 21:

Segment 22:

Segment 23:

Segment 24:

Segment 25:

Segment 26:

Segment 27:

Segment 28:

Segment 29:

Segment 30:

Segment 31:

Segment 32:

Segment 33:

Segment 34:

Segment 35:

Segment 36:

Segment 37:

Segment 38:

Segment 39:

Segment 40:

Potential/V, Current/A, Voltage/V, Time/s

0.000, -8.826e-7, 1.706e-2, 1.000e-2
-0.097, -2.888e-6, 2.007e-2, 9.800e-1
-0.194, -6.306e-6, 1.655e-2, 1.950e+0
-0.291, -1.276e-5, 2.154e-2, 2.920e+0
-0.388, -2.447e-5, 1.754e-2, 3.890e+0
-0.485, -4.285e-5, 2.007e-2, 4.860e+0
-0.582, -6.904e-5, 1.882e-2, 5.830e+0
-0.679, -1.028e-4, 1.991e-2, 6.800e+0
-0.776, -1.427e-4, 1.929e-2, 7.770e+0
-0.873, -1.861e-4, 4.353e-2, 8.740e+0
-0.970, -2.196e-4, 1.716e-1, 9.710e+0
-1.067, -2.433e-4, 3.261e-1, 1.068e+1
-1.164, -2.565e-4, 4.292e-1, 1.165e+1
-1.261, -2.523e-4, 4.351e-1, 1.262e+1
-1.358, -2.248e-4, 5.269e-1, 1.359e+1
-1.455, -1.851e-4, 4.069e-1, 1.456e+1
-1.552, -1.582e-4, 2.046e-1, 1.553e+1
-1.649, -1.524e-4, 1.416e-1, 1.650e+1
-1.746, -1.666e-4, 1.564e-1, 1.747e+1
-1.843, -1.898e-4, 2.356e-1, 1.844e+1
-1.940, -2.047e-4, 3.880e-1, 1.941e+1
-1.963, -1.660e-4, 4.719e-1, 2.038e+1
-1.866, -1.049e-4, 3.042e-1, 2.135e+1
-1.769, -7.133e-5, 2.120e-1, 2.232e+1
-1.672, -5.167e-5, 1.627e-1, 2.329e+1
-1.575, -3.986e-5, 1.343e-1, 2.426e+1
-1.478, -3.253e-5, 1.205e-1, 2.523e+1
-1.381, -2.695e-5, 1.114e-1, 2.620e+1
-1.284, -2.234e-5, 1.080e-1, 2.717e+1
-1.187, -1.830e-5, 9.203e-2, 2.814e+1
-1.090, -1.438e-5, 6.895e-2, 2.911e+1
-0.993, -1.015e-5, 6.173e-2, 3.008e+1
-0.896, -6.241e-6, 3.984e-2, 3.105e+1
-0.799, -2.719e-6, 2.331e-2, 3.202e+1
-0.702, 4.869e-7, 1.643e-2, 3.299e+1
-0.605, 2.785e-6, 2.050e-2, 3.396e+1
-0.508, 4.530e-6, 1.544e-2, 3.493e+1
-0.411, 5.895e-6, 2.008e-2, 3.590e+1
-0.314, 6.959e-6, 1.606e-2, 3.687e+1
-0.217, 7.832e-6, 1.953e-2, 3.784e+1
-0.120, 8.532e-6, 1.702e-2, 3.881e+1
-0.023, 9.201e-6, 1.859e-2, 3.978e+1
-0.074, 4.938e-6, 1.792e-2, 4.075e+1
-0.171, 2.662e-6, 1.926e-2, 4.172e+1
-0.268, 1.058e-6, 1.837e-2, 4.269e+1
-0.365, -7.737e-7, 1.765e-2, 4.366e+1
-0.462, -2.973e-6, 1.762e-2, 4.463e+1
-0.559, -6.293e-6, 1.703e-2, 4.560e+1
-0.656, -1.140e-5, 1.992e-2, 4.657e+1
-0.753, -1.952e-5, 1.756e-2, 4.754e+1
-0.850, -2.877e-5, 5.234e-2, 4.851e+1
-0.947, -3.566e-5, 1.112e-1, 4.948e+1
-1.044, -4.210e-5, 1.457e-1, 5.045e+1
-1.141, -4.856e-5, 1.787e-1, 5.142e+1
-1.238, -5.406e-5, 2.526e-1, 5.239e+1
-1.335, -5.795e-5, 2.681e-1, 5.336e+1
-1.432, -6.073e-5, 2.552e-1, 5.433e+1
-1.529, -6.425e-5, 1.939e-1, 5.530e+1
-1.626, -7.166e-5, 1.710e-1, 5.627e+1
-1.723, -8.526e-5, 1.658e-1, 5.724e+1
-1.820, -1.016e-4, 1.989e-1, 5.821e+1
-1.917, -1.172e-4, 2.920e-1, 5.918e+1
-1.986, -1.198e-4, 4.752e-1, 6.015e+1
-1.889, -6.657e-5, 2.723e-1, 6.112e+1
-1.792, -4.377e-5, 1.922e-1, 6.209e+1
-1.695, -3.169e-5, 1.582e-1, 6.306e+1
-1.598, -2.461e-5, 1.290e-1, 6.403e+1
-1.501, -1.952e-5, 1.149e-1, 6.500e+1
-1.404, -1.543e-5, 9.823e-2, 6.597e+1
-1.307, -1.171e-5, 9.575e-2, 6.694e+1
-1.210, -8.334e-6, 7.198e-2, 6.791e+1
-1.113, -5.448e-6, 6.482e-2, 6.888e+1
-1.016, -2.545e-6, 5.061e-2, 6.985e+1
-0.919, 2.107e-7, 3.753e-2, 7.082e+1
-0.822, 2.672e-6, 2.181e-2, 7.179e+1
-0.725, 4.826e-6, 1.884e-2, 7.276e+1
-0.628, 6.502e-6, 1.738e-2, 7.373e+1
-0.531, 7.611e-6, 1.883e-2, 7.470e+1
-0.434, 8.635e-6, 1.798e-2, 7.567e+1
-0.337, 9.383e-6, 1.656e-2, 7.664e+1
-0.240, 1.015e-5, 1.927e-2, 7.761e+1
-0.143, 1.066e-5, 1.648e-2, 7.858e+1
-0.046, 1.125e-5, 1.911e-2, 7.955e+1
-0.051, 7.755e-6, 1.684e-2, 8.052e+1
-0.148, 4.989e-6, 1.819e-2, 8.149e+1
-0.245, 3.105e-6, 1.656e-2, 8.246e+1
-0.342, 1.466e-6, 2.006e-2, 8.343e+1
-0.439, -4.144e-7, 1.589e-2, 8.440e+1
-0.536, -2.633e-6, 2.121e-2, 8.537e+1
-0.633, -5.688e-6, 1.607e-2, 8.634e+1
-0.730, -1.019e-5, 1.791e-2, 8.731e+1
-0.827, -1.668e-5, 2.774e-2, 8.828e+1
-0.924, -2.296e-5, 8.232e-2, 8.925e+1
-1.021, -2.900e-5, 1.204e-1, 9.022e+1
-1.118, -3.581e-5, 1.396e-1, 9.119e+1
-1.215, -4.289e-5, 2.148e-1, 9.216e+1
-1.312, -4.921e-5, 2.959e-1, 9.313e+1
-1.409, -5.383e-5, 3.309e-1, 9.410e+1
-1.506, -5.764e-5, 3.086e-1, 9.507e+1
-1.603, -6.167e-5, 2.763e-1, 9.604e+1
-1.700, -6.845e-5, 2.439e-1, 9.701e+1
-1.797, -7.933e-5, 2.077e-1, 9.798e+1
-1.894, -9.324e-5, 2.241e-1, 9.895e+1
-1.991, -1.140e-4, 4.685e-1, 9.992e+1
-1.912, -6.404e-5, 2.543e-1, 1.009e+2
-1.815, -4.068e-5, 1.997e-1, 1.019e+2
-1.718, -2.894e-5, 1.519e-1, 1.028e+2
-1.621, -2.196e-5, 1.302e-1, 1.038e+2
-1.524, -1.686e-5, 1.153e-1, 1.048e+2
-1.427, -1.273e-5, 9.757e-2, 1.057e+2
-1.330, -8.972e-6, 8.743e-2, 1.067e+2
-1.233, -5.702e-6, 6.773e-2, 1.077e+2
-1.136, -2.622e-6, 5.468e-2, 1.087e+2
-1.039, -1.201e-8, 4.549e-2, 1.096e+2
-0.942, 2.480e-6, 3.569e-2, 1.106e+2
-0.845, 4.521e-6, 1.929e-2, 1.116e+2
-0.748, 6.421e-6, 1.966e-2, 1.125e+2
-0.651, 7.776e-6, 1.619e-2, 1.135e+2
-0.554, 8.842e-6, 1.871e-2, 1.145e+2
-0.457, 9.664e-6, 1.692e-2, 1.154e+2
-0.360, 1.033e-5, 1.937e-2, 1.164e+2
-0.263, 1.094e-5, 1.514e-2, 1.174e+2
-0.166, 1.144e-5, 1.887e-2, 1.184e+2
-0.069, 1.185e-5, 1.722e-2, 1.193e+2
-0.028, 9.719e-6, 1.748e-2, 1.203e+2
-0.125, 6.367e-6, 1.715e-2, 1.213e+2
-0.222, 4.371e-6, 1.800e-2, 1.222e+2
-0.319, 2.785e-6, 1.805e-2, 1.232e+2
-0.416, 1.015e-6, 1.659e-2, 1.242e+2
-0.513, -8.475e-7, 1.884e-2, 1.251e+2
-0.610, -3.271e-6, 1.626e-2, 1.261e+2
-0.707, -6.334e-6, 1.834e-2, 1.271e+2
-0.804, -1.100e-5, 2.025e-2, 1.281e+2
-0.901, -1.633e-5, 5.465e-2, 1.290e+2
-0.998, -2.178e-5, 9.809e-2, 1.300e+2
-1.095, -2.782e-5, 1.138e-1, 1.310e+2
-1.192, -3.493e-5, 1.648e-1, 1.319e+2
-1.289, -4.216e-5, 2.517e-1, 1.329e+2
-1.386, -4.835e-5, 3.090e-1, 1.339e+2
-1.483, -5.317e-5, 3.509e-1, 1.348e+2
-1.580, -5.717e-5, 3.217e-1, 1.358e+2
-1.677, -6.208e-5, 2.842e-1, 1.368e+2
-1.774, -6.966e-5, 2.301e-1, 1.378e+2
-1.871, -8.099e-5, 2.091e-1, 1.387e+2
-1.968, -9.840e-5, 3.168e-1, 1.397e+2
-1.935, -6.653e-5, 2.278e-1, 1.407e+2
-1.838, -4.067e-5, 1.697e-1, 1.416e+2
-1.741, -2.832e-5, 1.498e-1, 1.426e+2
-1.644, -2.093e-5, 1.229e-1, 1.436e+2
-1.547, -1.578e-5, 9.758e-2, 1.445e+2
-1.450, -1.149e-5, 8.869e-2, 1.455e+2
-1.353, -7.645e-6, 7.769e-2, 1.465e+2
-1.256, -4.521e-6, 7.294e-2, 1.474e+2
-1.159, -1.688e-6, 4.696e-2, 1.484e+2
-1.062, 9.065e-7, 4.213e-2, 1.494e+2
-0.965, 3.204e-6, 2.931e-2, 1.504e+2
-0.868, 5.241e-6, 2.377e-2, 1.513e+2
-0.771, 6.920e-6, 1.485e-2, 1.523e+2
-0.674, 8.315e-6, 1.917e-2, 1.533e+2
-0.577, 9.295e-6, 1.704e-2, 1.542e+2
-0.480, 1.011e-5, 1.785e-2, 1.552e+2
-0.383, 1.076e-5, 1.521e-2, 1.562e+2
-0.286, 1.131e-5, 1.904e-2, 1.571e+2
-0.189, 1.181e-5, 1.787e-2, 1.581e+2
-0.092, 1.219e-5, 1.835e-2, 1.591e+2
-0.005, 1.184e-5, 1.551e-2, 1.601e+2
-0.102, 7.432e-6, 1.858e-2, 1.610e+2
-0.199, 5.326e-6, 1.782e-2, 1.620e+2
-0.296, 3.662e-6, 1.864e-2, 1.630e+2
-0.393, 2.028e-6, 1.705e-2, 1.639e+2
-0.490, 2.082e-7, 1.726e-2, 1.649e+2
-0.587, -1.842e-6, 1.677e-2, 1.659e+2
-0.684, -4.360e-6, 1.912e-2, 1.668e+2
-0.781, -7.824e-6, 1.632e-2, 1.678e+2
-0.878, -1.240e-5, 3.913e-2, 1.688e+2
-0.975, -1.721e-5, 6.627e-2, 1.697e+2
-1.072, -2.271e-5, 9.144e-2, 1.707e+2
-1.169, -2.913e-5, 1.163e-1, 1.717e+2
-1.266, -3.649e-5, 1.951e-1, 1.727e+2
-1.363, -4.343e-5, 2.659e-1, 1.736e+2
-1.460, -4.930e-5, 3.286e-1, 1.746e+2
-1.557, -5.395e-5, 3.401e-1, 1.756e+2
-1.654, -5.834e-5, 3.263e-1, 1.765e+2
-1.751, -6.420e-5, 2.433e-1, 1.775e+2
-1.848, -7.301e-5, 2.128e-1, 1.785e+2
-1.945, -8.719e-5, 2.597e-1, 1.794e+2
-1.958, -7.213e-5, 2.511e-1, 1.804e+2
-1.861, -4.252e-5, 1.731e-1, 1.814e+2
-1.764, -2.890e-5, 1.383e-1, 1.823e+2
-1.667, -2.116e-5, 1.136e-1, 1.833e+2
-1.570, -1.564e-5, 9.572e-2, 1.843e+2
-1.473, -1.141e-5, 8.520e-2, 1.853e+2
-1.376, -7.448e-6, 7.326e-2, 1.862e+2
-1.279, -4.293e-6, 6.481e-2, 1.872e+2
-1.182, -1.345e-6, 4.915e-2, 1.882e+2
-1.085, 1.173e-6, 3.798e-2, 1.891e+2
-0.988, 3.465e-6, 3.287e-2, 1.901e+2
-0.891, 5.427e-6, 2.457e-2, 1.911e+2
-0.794, 7.126e-6, 1.700e-2, 1.920e+2
-0.697, 8.446e-6, 1.954e-2, 1.930e+2
-0.600, 9.516e-6, 1.616e-2, 1.940e+2
-0.503, 1.032e-5, 1.750e-2, 1.950e+2
-0.406, 1.098e-5, 1.591e-2, 1.959e+2
-0.309, 1.157e-5, 1.947e-2, 1.969e+2
-0.212, 1.201e-5, 1.599e-2, 1.979e+2
-0.115, 1.241e-5, 1.815e-2, 1.988e+2
-0.018, 1.284e-5, 1.461e-2, 1.998e+2
-0.079, 8.463e-6, 1.923e-2, 2.008e+2
-0.176, 6.114e-6, 1.529e-2, 2.017e+2
-0.273, 4.388e-6, 2.022e-2, 2.027e+2
-0.370, 2.772e-6, 1.552e-2, 2.037e+2
-0.467, 1.018e-6, 1.853e-2, 2.046e+2
-0.564, -9.127e-7, 1.601e-2, 2.056e+2
-0.661, -3.107e-6, 1.921e-2, 2.066e+2
-0.758, -6.047e-6, 1.625e-2, 2.076e+2
-0.855, -1.010e-5, 2.837e-2, 2.085e+2
-0.952, -1.453e-5, 5.433e-2, 2.095e+2
-1.049, -1.959e-5, 7.142e-2, 2.105e+2
-1.146, -2.558e-5, 9.769e-2, 2.114e+2
-1.243, -3.273e-5, 1.566e-1, 2.124e+2
-1.340, -4.006e-5, 2.271e-1, 2.134e+2
-1.437, -4.662e-5, 2.989e-1, 2.143e+2
-1.534, -5.191e-5, 3.247e-1, 2.153e+2
-1.631, -5.630e-5, 3.247e-1, 2.163e+2
-1.728, -6.124e-5, 2.780e-1, 2.172e+2
-1.825, -6.830e-5, 2.100e-1, 2.182e+2
-1.922, -7.958e-5, 2.123e-1, 2.192e+2
-1.981, -8.103e-5, 2.679e-1, 2.202e+2
-1.884, -4.580e-5, 1.664e-1, 2.211e+2
-1.787, -3.043e-5, 1.316e-1, 2.221e+2
-1.690, -2.193e-5, 1.118e-1, 2.231e+2
-1.593, -1.612e-5, 9.665e-2, 2.240e+2
-1.496, -1.167e-5, 7.800e-2, 2.250e+2
-1.399, -7.731e-6, 6.720e-2, 2.260e+2
-1.302, -4.464e-6, 5.926e-2, 2.269e+2
-1.205, -1.604e-6, 5.035e-2, 2.279e+2
-1.108, 1.061e-6, 3.721e-2, 2.289e+2
-1.011, 3.330e-6, 3.226e-2, 2.299e+2
-0.914, 5.313e-6, 2.081e-2, 2.308e+2
-0.817, 7.050e-6, 1.919e-2, 2.318e+2
-0.720, 8.449e-6, 1.579e-2, 2.328e+2
-0.623, 9.555e-6, 1.882e-2, 2.337e+2
-0.526, 1.036e-5, 1.583e-2, 2.347e+2
-0.429, 1.112e-5, 1.929e-2, 2.357e+2
-0.332, 1.165e-5, 1.519e-2, 2.366e+2
-0.235, 1.214e-5, 1.705e-2, 2.376e+2
-0.138, 1.246e-5, 1.494e-2, 2.386e+2
-0.041, 1.295e-5, 1.844e-2, 2.395e+2
-0.056, 9.498e-6, 1.667e-2, 2.405e+2
-0.153, 6.886e-6, 1.850e-2, 2.415e+2
-0.250, 5.010e-6, 1.612e-2, 2.425e+2
-0.347, 3.448e-6, 1.637e-2, 2.434e+2
-0.444, 1.708e-6, 1.757e-2, 2.444e+2
-0.541, 3.987e-9, 1.674e-2, 2.454e+2
-0.638, -2.067e-6, 1.918e-2, 2.463e+2
-0.735, -4.506e-6, 1.614e-2, 2.473e+2
-0.832, -7.893e-6, 2.077e-2, 2.483e+2
-0.929, -1.183e-5, 4.009e-2, 2.492e+2
-1.026, -1.638e-5, 5.701e-2, 2.502e+2
-1.123, -2.172e-5, 7.661e-2, 2.512e+2
-1.220, -2.809e-5, 1.214e-1, 2.522e+2
-1.317, -3.532e-5, 1.836e-1, 2.531e+2
-1.414, -4.215e-5, 2.586e-1, 2.541e+2
-1.511, -4.816e-5, 3.043e-1, 2.551e+2
-1.608, -5.294e-5, 3.034e-1, 2.560e+2
-1.637, -5.436e-5, 3.188e-1, 2.563e+2

File: 10号b-cds（2）.txt
Apr. 27, 2023   13:14:23
Cyclic Voltammetry
File: 10Data Source:  Experiment
Instrument Model:  CHI660E
Ref. Electrode: Ag/AgCl
Header:
Note:

Init E (V) = 0
High E (V) = 0
Low E (V) = -2
Init P/N = N
Scan Rate (V/s) = 0.1
Segment = 40
Sample Interval (V) = 0.001
Quiet Time (sec) = 5
Sensitivity (A/V) = 0.001

Segment 1:

Segment 2:

Segment 3:

Segment 4:

Segment 5:

Segment 6:

Segment 7:

Segment 8:

Segment 9:

Segment 10:

Segment 11:

Segment 12:

Segment 13:

Segment 14:

Segment 15:

Segment 16:

Segment 17:

Segment 18:

Segment 19:

Segment 20:

Segment 21:

Segment 22:

Segment 23:

Segment 24:

Segment 25:

Segment 26:

Segment 27:

Segment 28:

Segment 29:

Segment 30:

Segment 31:

Segment 32:

Segment 33:

Segment 34:

Segment 35:

Segment 36:

Segment 37:

Segment 38:

Segment 39:

Segment 40:

Potential/V, Current/A, Voltage/V, Time/s

0.000, 8.607e-6, 1.567e-2, 1.000e-2
-0.301, 3.140e-6, 1.846e-2, 3.020e+0
-0.602, -1.997e-6, 1.637e-2, 6.030e+0
-0.903, -1.189e-5, 3.710e-2, 9.040e+0
-1.204, -2.881e-5, 1.085e-1, 1.205e+1
-1.505, -4.942e-5, 2.801e-1, 1.506e+1
-1.806, -6.566e-5, 1.658e-1, 1.807e+1
-1.893, -4.645e-5, 1.265e-1, 2.108e+1
-1.592, -1.540e-5, 7.915e-2, 2.409e+1
-1.291, -3.749e-6, 4.528e-2, 2.710e+1
-0.990, 4.025e-6, 2.722e-2, 3.011e+1
-0.689, 8.975e-6, 1.873e-2, 3.312e+1
-0.388, 1.144e-5, 1.499e-2, 3.613e+1
-0.087, 1.279e-5, 1.949e-2, 3.914e+1
-0.214, 5.782e-6, 1.521e-2, 4.215e+1
-0.515, 7.576e-7, 1.753e-2, 4.516e+1
-0.816, -6.269e-6, 1.869e-2, 4.817e+1
-1.117, -1.925e-5, 6.259e-2, 5.118e+1
-1.418, -3.985e-5, 2.172e-1, 5.419e+1
-1.719, -5.665e-5, 2.315e-1, 5.720e+1
-1.980, -7.350e-5, 1.911e-1, 6.021e+1
-1.679, -1.968e-5, 8.749e-2, 6.322e+1
-1.378, -5.958e-6, 5.088e-2, 6.623e+1
-1.077, 2.346e-6, 3.023e-2, 6.924e+1
-0.776, 7.997e-6, 1.604e-2, 7.225e+1
-0.475, 1.112e-5, 1.886e-2, 7.526e+1
-0.174, 1.266e-5, 1.506e-2, 7.827e+1
-0.127, 7.829e-6, 1.899e-2, 8.128e+1
-0.428, 2.389e-6, 1.636e-2, 8.429e+1
-0.729, -3.263e-6, 1.772e-2, 8.730e+1
-1.030, -1.373e-5, 4.536e-2, 9.031e+1
-1.331, -3.192e-5, 1.492e-1, 9.332e+1
-1.632, -5.091e-5, 2.599e-1, 9.633e+1
-1.933, -7.252e-5, 1.611e-1, 9.934e+1
-1.766, -2.585e-5, 9.681e-2, 1.024e+2
-1.465, -8.978e-6, 5.921e-2, 1.054e+2
-1.164, 4.076e-7, 3.608e-2, 1.084e+2
-0.863, 6.637e-6, 1.752e-2, 1.114e+2
-0.562, 1.049e-5, 1.678e-2, 1.144e+2
-0.261, 1.235e-5, 1.701e-2, 1.174e+2
-0.040, 1.066e-5, 1.600e-2, 1.204e+2
-0.341, 3.965e-6, 1.947e-2, 1.234e+2
-0.642, -1.216e-6, 1.604e-2, 1.264e+2
-0.943, -9.519e-6, 3.486e-2, 1.294e+2
-1.244, -2.462e-5, 9.450e-2, 1.325e+2
-1.545, -4.502e-5, 2.458e-1, 1.355e+2
-1.846, -6.237e-5, 1.639e-1, 1.385e+2
-1.853, -3.578e-5, 1.086e-1, 1.415e+2
-1.552, -1.225e-5, 7.221e-2, 1.445e+2
-1.251, -1.875e-6, 3.789e-2, 1.475e+2
-0.950, 5.151e-6, 2.329e-2, 1.505e+2
-0.649, 9.652e-6, 1.517e-2, 1.535e+2
-0.348, 1.196e-5, 1.763e-2, 1.565e+2
-0.047, 1.331e-5, 1.650e-2, 1.595e+2
-0.254, 5.481e-6, 1.667e-2, 1.625e+2
-0.555, 5.054e-7, 1.883e-2, 1.655e+2
-0.856, -6.239e-6, 1.934e-2, 1.686e+2
-1.157, -1.845e-5, 6.198e-2, 1.716e+2
-1.458, -3.851e-5, 2.046e-1, 1.746e+2
-1.759, -5.570e-5, 2.025e-1, 1.776e+2
-1.940, -5.375e-5, 1.240e-1, 1.806e+2
-1.639, -1.641e-5, 7.399e-2, 1.836e+2
-1.338, -4.522e-6, 4.590e-2, 1.866e+2
-1.037, 3.271e-6, 3.006e-2, 1.896e+2
-0.736, 8.568e-6, 1.774e-2, 1.926e+2
-0.435, 1.144e-5, 1.656e-2, 1.956e+2
-0.134, 1.305e-5, 1.746e-2, 1.986e+2
-0.167, 7.203e-6, 1.665e-2, 2.016e+2
-0.468, 2.011e-6, 1.715e-2, 2.047e+2
-0.769, -3.636e-6, 1.698e-2, 2.077e+2
-1.070, -1.368e-5, 4.661e-2, 2.107e+2
-1.371, -3.178e-5, 1.433e-1, 2.137e+2
-1.672, -5.060e-5, 2.353e-1, 2.167e+2
-1.973, -7.414e-5, 1.685e-1, 2.197e+2
-1.726, -2.186e-5, 8.755e-2, 2.227e+2
-1.425, -7.128e-6, 5.211e-2, 2.257e+2
-1.124, 1.331e-6, 2.932e-2, 2.287e+2
-0.823, 7.215e-6, 1.894e-2, 2.317e+2
-0.522, 1.082e-5, 1.570e-2, 2.347e+2
-0.221, 1.263e-5, 1.892e-2, 2.377e+2
-0.080, 9.418e-6, 1.775e-2, 2.408e+2
-0.381, 3.441e-6, 1.686e-2, 2.438e+2
-0.682, -1.565e-6, 1.785e-2, 2.468e+2
-0.983, -9.798e-6, 3.084e-2, 2.498e+2
-1.284, -2.473e-5, 9.760e-2, 2.528e+2
-1.585, -4.480e-5, 2.264e-1, 2.558e+2
-1.886, -6.304e-5, 1.520e-1, 2.588e+2
-1.813, -2.962e-5, 8.721e-2, 2.618e+2
-1.512, -1.034e-5, 5.568e-2, 2.648e+2
-1.211, -8.555e-7, 3.018e-2, 2.679e+2
-0.910, 5.698e-6, 1.933e-2, 2.709e+2
-0.609, 9.950e-6, 1.816e-2, 2.739e+2
-0.308, 1.227e-5, 1.619e-2, 2.769e+2
-0.007, 1.356e-5, 1.929e-2, 2.799e+2
-0.294, 4.933e-6, 1.602e-2, 2.829e+2
-0.595, 8.827e-8, 1.790e-2, 2.859e+2
-0.896, -6.666e-6, 2.432e-2, 2.889e+2
-1.197, -1.891e-5, 5.930e-2, 2.920e+2
-1.498, -3.859e-5, 1.916e-1, 2.950e+2
-1.799, -5.617e-5, 1.653e-1, 2.980e+2
-1.900, -4.227e-5, 1.080e-1, 3.010e+2
-1.599, -1.405e-5, 6.165e-2, 3.040e+2
-1.298, -3.142e-6, 3.642e-2, 3.070e+2
-0.997, 3.959e-6, 2.292e-2, 3.100e+2
-0.696, 8.906e-6, 1.481e-2, 3.130e+2
-0.395, 1.175e-5, 1.863e-2, 3.161e+2
-0.094, 1.320e-5, 1.667e-2, 3.191e+2
-0.207, 6.593e-6, 1.716e-2, 3.221e+2
-0.508, 1.419e-6, 1.862e-2, 3.251e+2
-0.809, -4.086e-6, 1.705e-2, 3.281e+2
-1.110, -1.414e-5, 4.353e-2, 3.311e+2
-1.411, -3.191e-5, 1.291e-1, 3.341e+2
-1.712, -5.068e-5, 2.061e-1, 3.371e+2
-1.987, -6.763e-5, 1.418e-1, 3.402e+2
-1.686, -1.877e-5, 6.783e-2, 3.432e+2
-1.385, -5.750e-6, 4.686e-2, 3.462e+2
-1.084, 2.119e-6, 2.383e-2, 3.492e+2
-0.783, 7.614e-6, 1.661e-2, 3.522e+2
-0.482, 1.113e-5, 1.669e-2, 3.552e+2
-0.181, 1.289e-5, 1.426e-2, 3.582e+2
-0.120, 8.463e-6, 1.864e-2, 3.613e+2
-0.421, 2.893e-6, 1.654e-2, 3.643e+2
-0.722, -2.123e-6, 1.773e-2, 3.673e+2
-1.023, -1.027e-5, 3.486e-2, 3.703e+2
-1.324, -2.547e-5, 8.995e-2, 3.733e+2
-1.625, -4.522e-5, 2.015e-1, 3.763e+2
-1.926, -6.486e-5, 1.472e-1, 3.793e+2
-1.773, -2.515e-5, 7.603e-2, 3.823e+2
-1.472, -8.734e-6, 5.015e-2, 3.854e+2
-1.171, 2.429e-8, 2.691e-2, 3.884e+2
-0.870, 6.207e-6, 1.952e-2, 3.914e+2
-0.569, 1.029e-5, 1.500e-2, 3.944e+2
-0.268, 1.246e-5, 1.646e-2, 3.974e+2
-0.033, 1.140e-5, 1.649e-2, 4.004e+2
-0.334, 4.340e-6, 1.575e-2, 4.034e+2
-0.635, -4.802e-7, 1.911e-2, 4.064e+2
-0.936, -7.214e-6, 2.293e-2, 4.095e+2
-1.237, -1.974e-5, 6.365e-2, 4.125e+2
-1.538, -3.924e-5, 1.788e-1, 4.155e+2
-1.839, -5.732e-5, 1.561e-1, 4.185e+2
-1.860, -3.477e-5, 8.126e-2, 4.215e+2
-1.559, -1.212e-5, 5.232e-2, 4.245e+2
-1.258, -2.205e-6, 3.100e-2, 4.275e+2
-0.957, 4.543e-6, 1.867e-2, 4.305e+2
-0.656, 9.299e-6, 1.803e-2, 4.336e+2
-0.355, 1.197e-5, 1.566e-2, 4.366e+2
-0.054, 1.347e-5, 2.046e-2, 4.396e+2
-0.247, 5.886e-6, 1.505e-2, 4.426e+2
-0.548, 9.188e-7, 1.847e-2, 4.456e+2
-0.849, -4.776e-6, 1.722e-2, 4.486e+2
-1.150, -1.496e-5, 4.330e-2, 4.516e+2
-1.451, -3.286e-5, 1.308e-1, 4.547e+2
-1.752, -5.156e-5, 1.812e-1, 4.577e+2
-1.947, -5.184e-5, 1.146e-1, 4.607e+2
-1.646, -1.627e-5, 5.665e-2, 4.637e+2
-1.345, -4.566e-6, 3.768e-2, 4.667e+2
-1.044, 2.725e-6, 2.197e-2, 4.697e+2
-0.743, 8.060e-6, 1.862e-2, 4.727e+2
-0.442, 1.137e-5, 1.523e-2, 4.757e+2
-0.141, 1.313e-5, 1.803e-2, 4.788e+2
-0.160, 7.657e-6, 1.544e-2, 4.818e+2
-0.461, 2.275e-6, 1.683e-2, 4.848e+2
-0.762, -2.666e-6, 1.802e-2, 4.878e+2
-1.063, -1.105e-5, 3.170e-2, 4.908e+2
-1.364, -2.656e-5, 8.817e-2, 4.938e+2
-1.665, -4.604e-5, 1.970e-1, 4.968e+2
-1.966, -6.745e-5, 1.479e-1, 4.998e+2
-1.733, -2.169e-5, 6.146e-2, 5.029e+2
-1.432, -7.309e-6, 3.844e-2, 5.059e+2
-1.131, 8.462e-7, 2.681e-2, 5.089e+2
-0.830, 6.687e-6, 1.584e-2, 5.119e+2
-0.529, 1.054e-5, 1.772e-2, 5.149e+2
-0.228, 1.274e-5, 1.796e-2, 5.179e+2
-0.073, 9.915e-6, 1.621e-2, 5.209e+2
-0.374, 3.755e-6, 1.823e-2, 5.239e+2
-0.675, -9.853e-7, 1.444e-2, 5.270e+2
-0.976, -7.932e-6, 2.713e-2, 5.300e+2
-1.277, -2.081e-5, 6.303e-2, 5.330e+2
-1.578, -4.028e-5, 1.745e-1, 5.360e+2
-1.879, -5.891e-5, 1.382e-1, 5.390e+2
-1.820, -2.940e-5, 6.939e-2, 5.420e+2
-1.519, -1.036e-5, 4.924e-2, 5.450e+2
-1.218, -1.299e-6, 2.616e-2, 5.481e+2
-0.917, 5.060e-6, 1.905e-2, 5.511e+2
-0.616, 9.611e-6, 1.485e-2, 5.541e+2
-0.315, 1.214e-5, 1.768e-2, 5.571e+2
-0.014, 1.370e-5, 1.785e-2, 5.601e+2
-0.287, 5.217e-6, 1.444e-2, 5.631e+2
-0.588, 3.904e-7, 1.826e-2, 5.661e+2
-0.889, -5.417e-6, 1.663e-2, 5.691e+2
-1.190, -1.596e-5, 4.704e-2, 5.722e+2
-1.491, -3.402e-5, 1.315e-1, 5.752e+2
-1.792, -5.282e-5, 1.587e-1, 5.782e+2
-1.907, -4.175e-5, 8.549e-2, 5.812e+2
-1.606, -1.417e-5, 4.815e-2, 5.842e+2
-1.305, -3.481e-6, 3.199e-2, 5.872e+2
-1.004, 3.347e-6, 1.790e-2, 5.902e+2
-0.703, 8.465e-6, 1.801e-2, 5.932e+2
-0.402, 1.159e-5, 1.514e-2, 5.963e+2
-0.101, 1.334e-5, 1.827e-2, 5.993e+2
-0.200, 6.888e-6, 1.652e-2, 6.023e+2
-0.501, 1.754e-6, 1.792e-2, 6.053e+2
-0.802, -3.294e-6, 1.739e-2, 6.083e+2
-1.103, -1.199e-5, 3.038e-2, 6.113e+2
-1.404, -2.785e-5, 9.414e-2, 6.143e+2
-1.705, -4.729e-5, 1.706e-1, 6.174e+2
-1.994, -6.675e-5, 1.479e-1, 6.204e+2
-1.693, -1.881e-5, 5.533e-2, 6.234e+2
-1.392, -6.001e-6, 3.783e-2, 6.264e+2
-1.091, 1.532e-6, 2.282e-2, 6.294e+2
-0.790, 7.120e-6, 1.838e-2, 6.324e+2
-0.489, 1.089e-5, 1.461e-2, 6.354e+2
-0.188, 1.294e-5, 1.875e-2, 6.384e+2
-0.113, 8.839e-6, 1.600e-2, 6.415e+2
-0.414, 3.213e-6, 1.693e-2, 6.445e+2
-0.715, -1.617e-6, 1.515e-2, 6.475e+2
-1.016, -8.742e-6, 2.764e-2, 6.505e+2
-1.317, -2.218e-5, 6.438e-2, 6.535e+2
-1.618, -4.149e-5, 1.594e-1, 6.565e+2
-1.919, -6.119e-5, 1.306e-1, 6.595e+2
-1.780, -2.519e-5, 6.102e-2, 6.625e+2
-1.479, -8.934e-6, 4.369e-2, 6.656e+2
-1.178, -4.722e-7, 2.442e-2, 6.686e+2
-0.877, 5.584e-6, 1.588e-2, 6.716e+2
-0.576, 9.936e-6, 1.887e-2, 6.746e+2
-0.275, 1.242e-5, 1.505e-2, 6.776e+2
-0.026, 1.187e-5, 1.792e-2, 6.806e+2
-0.327, 4.578e-6, 1.615e-2, 6.836e+2
-0.628, -9.322e-8, 1.687e-2, 6.866e+2
-0.929, -6.161e-6, 1.931e-2, 6.897e+2
-1.230, -1.714e-5, 4.299e-2, 6.927e+2
-1.531, -3.542e-5, 1.296e-1, 6.957e+2
-1.832, -5.446e-5, 1.360e-1, 6.987e+2
-1.867, -3.486e-5, 7.244e-2, 7.017e+2
-1.566, -1.226e-5, 4.262e-2, 7.047e+2
-1.265, -2.555e-6, 2.956e-2, 7.077e+2
-0.964, 3.910e-6, 1.846e-2, 7.108e+2
-0.663, 8.852e-6, 1.863e-2, 7.138e+2
-0.362, 1.180e-5, 1.502e-2, 7.168e+2
-0.061, 1.352e-5, 1.745e-2, 7.198e+2
-0.240, 6.095e-6, 1.605e-2, 7.228e+2
-0.541, 1.253e-6, 1.640e-2, 7.258e+2
-0.842, -4.068e-6, 1.722e-2, 7.288e+2
-1.143, -1.297e-5, 3.313e-2, 7.318e+2
-1.444, -2.931e-5, 9.581e-2, 7.349e+2
-1.745, -4.872e-5, 1.551e-1, 7.379e+2
-1.954, -5.172e-5, 1.002e-1, 7.409e+2
-1.653, -1.642e-5, 4.864e-2, 7.439e+2
-1.352, -4.886e-6, 3.365e-2, 7.469e+2
-1.051, 2.197e-6, 1.802e-2, 7.499e+2
-0.750, 7.572e-6, 1.714e-2, 7.529e+2
-0.449, 1.115e-5, 1.605e-2, 7.559e+2
-0.148, 1.311e-5, 1.767e-2, 7.590e+2
-0.153, 7.861e-6, 1.510e-2, 7.620e+2
-0.454, 2.565e-6, 1.713e-2, 7.650e+2
-0.755, -2.239e-6, 1.680e-2, 7.680e+2
-1.056, -9.664e-6, 2.435e-2, 7.710e+2
-1.357, -2.357e-5, 6.817e-2, 7.740e+2
-1.658, -4.297e-5, 1.506e-1, 7.770e+2
-1.959, -6.397e-5, 1.439e-1, 7.800e+2
-1.740, -2.187e-5, 5.504e-2, 7.831e+2
-1.439, -7.529e-6, 4.003e-2, 7.861e+2
-1.138, 3.042e-7, 2.430e-2, 7.891e+2
-0.837, 6.098e-6, 1.488e-2, 7.921e+2
-0.536, 1.026e-5, 1.806e-2, 7.951e+2
-0.235, 1.262e-5, 1.545e-2, 7.981e+2
-0.002, 1.379e-5, 1.809e-2, 8.005e+2