Folder: sulfur-containing-metal-salts-detection/data/FL/FL/2023.4.27

File: 9号b-cds 虾.txt
Apr. 27, 2023   12:52:39
Cyclic Voltammetry
File: 9Data Source:  Experiment
Instrument Model:  CHI660E
Ref. Electrode: Ag/AgCl
Header:
Note:

Init E (V) = 0
High E (V) = 0
Low E (V) = -2
Init P/N = N
Scan Rate (V/s) = 0.1
Segment = 40
Sample Interval (V) = 0.001
Quiet Time (sec) = 5
Sensitivity (A/V) = 0.001

Segment 1:
Ep = -1.961V
ip = -7.420e-6A
Ah = -3.013e-6C

Segment 2:

Segment 3:
Ep = -1.587V
ip = -1.396e-6A
Ah = -6.643e-7C

Segment 4:

Segment 5:
Ep = -1.609V
ip = -2.443e-6A
Ah = -1.830e-6C

Segment 6:

Segment 7:
Ep = -1.619V
ip = -3.528e-6A
Ah = -2.943e-6C

Segment 8:

Segment 9:

Segment 10:

Segment 11:

Segment 12:

Segment 13:

Segment 14:

Segment 15:

Segment 16:

Segment 17:

Segment 18:

Segment 19:

Segment 20:

Segment 21:

Segment 22:

Segment 23:

Segment 24:

Segment 25:

Segment 26:

Segment 27:

Segment 28:

Segment 29:

Segment 30:

Segment 31:

Segment 32:

Segment 33:

Segment 34:

Segment 35:

Segment 36:

Segment 37:

Segment 38:

Segment 39:

Segment 40:

Potential/V, Current/A, Voltage/V, Time/s

0.000, 9.566e-8, 2.369e-2, 1.000e-2
-0.304, -2.020e-6, 2.366e-2, 3.050e+0
-0.608, -1.184e-5, 2.161e-2, 6.090e+0
-0.912, -6.799e-5, 2.598e-2, 9.130e+0
-1.216, -2.339e-4, 2.798e-2, 1.217e+1
-1.520, -3.792e-4, 4.228e-2, 1.521e+1
-1.824, -2.713e-4, 1.946e-1, 1.825e+1
-1.872, -2.122e-4, 1.404e-1, 2.129e+1
-1.568, -1.676e-4, 3.461e-2, 2.433e+1
-1.264, -1.274e-4, 2.429e-2, 2.737e+1
-0.960, -6.861e-5, 2.208e-2, 3.041e+1
-0.656, -1.920e-5, 2.154e-2, 3.345e+1
-0.352, -2.964e-6, 2.115e-2, 3.649e+1
-0.048, 9.059e-7, 1.981e-2, 3.953e+1
-0.256, -2.286e-6, 2.172e-2, 4.257e+1
-0.560, -1.201e-5, 2.158e-2, 4.561e+1
-0.864, -5.713e-5, 2.209e-2, 4.865e+1
-1.168, -1.565e-4, 2.397e-2, 5.169e+1
-1.472, -2.306e-4, 2.906e-2, 5.473e+1
-1.776, -1.994e-4, 1.660e-1, 5.777e+1
-1.920, -1.678e-4, 1.354e-1, 6.081e+1
-1.616, -1.327e-4, 3.744e-2, 6.385e+1
-1.312, -1.050e-4, 2.265e-2, 6.689e+1
-1.008, -6.284e-5, 1.929e-2, 6.993e+1
-0.704, -2.100e-5, 1.990e-2, 7.297e+1
-0.400, -3.707e-6, 2.119e-2, 7.601e+1
-0.096, 5.866e-7, 2.067e-2, 7.905e+1
-0.208, -1.495e-6, 1.947e-2, 8.209e+1
-0.512, -8.626e-6, 1.887e-2, 8.513e+1
-0.816, -4.103e-5, 1.974e-2, 8.817e+1
-1.120, -1.201e-4, 2.065e-2, 9.121e+1
-1.424, -2.022e-4, 2.557e-2, 9.425e+1
-1.728, -2.032e-4, 1.375e-1, 9.729e+1
-1.968, -1.828e-4, 1.598e-1, 1.003e+2
-1.664, -1.345e-4, 4.458e-2, 1.034e+2
-1.360, -1.066e-4, 2.215e-2, 1.064e+2
-1.056, -6.804e-5, 2.069e-2, 1.095e+2
-0.752, -2.588e-5, 2.122e-2, 1.125e+2
-0.448, -5.227e-6, 1.907e-2, 1.155e+2
-0.144, 5.813e-8, 1.926e-2, 1.186e+2
-0.160, -9.902e-7, 1.965e-2, 1.216e+2
-0.464, -6.986e-6, 1.962e-2, 1.247e+2
-0.768, -3.285e-5, 1.999e-2, 1.277e+2
-1.072, -1.009e-4, 2.099e-2, 1.307e+2
-1.376, -1.850e-4, 2.485e-2, 1.338e+2
-1.680, -2.113e-4, 1.003e-1, 1.368e+2
-1.984, -2.027e-4, 2.009e-1, 1.399e+2
-1.712, -1.340e-4, 4.572e-2, 1.429e+2
-1.408, -1.043e-4, 1.992e-2, 1.459e+2
-1.104, -7.022e-5, 1.962e-2, 1.490e+2
-0.800, -3.016e-5, 1.918e-2, 1.520e+2
-0.496, -6.813e-6, 1.920e-2, 1.550e+2
-0.192, -4.341e-7, 1.961e-2, 1.581e+2
-0.112, -3.664e-7, 1.947e-2, 1.611e+2
-0.416, -5.579e-6, 2.084e-2, 1.642e+2
-0.720, -2.575e-5, 2.011e-2, 1.672e+2
-1.024, -8.323e-5, 2.022e-2, 1.702e+2
-1.328, -1.651e-4, 2.212e-2, 1.733e+2
-1.632, -2.168e-4, 5.643e-2, 1.763e+2
-1.936, -2.059e-4, 1.733e-1, 1.794e+2
-1.760, -1.423e-4, 5.215e-2, 1.824e+2
-1.456, -1.087e-4, 2.075e-2, 1.854e+2
-1.152, -7.635e-5, 1.899e-2, 1.885e+2
-0.848, -3.631e-5, 2.290e-2, 1.915e+2
-0.544, -9.385e-6, 2.055e-2, 1.945e+2
-0.240, -1.247e-6, 1.911e-2, 1.976e+2
-0.064, 1.092e-7, 2.084e-2, 2.006e+2
-0.368, -4.719e-6, 2.097e-2, 2.037e+2
-0.672, -2.084e-5, 2.029e-2, 2.067e+2
-0.976, -6.982e-5, 2.258e-2, 2.097e+2
-1.280, -1.476e-4, 2.109e-2, 2.128e+2
-1.584, -2.078e-4, 3.408e-2, 2.158e+2
-1.888, -2.040e-4, 1.337e-1, 2.188e+2
-1.808, -1.484e-4, 5.435e-2, 2.219e+2
-1.504, -1.100e-4, 2.202e-2, 2.249e+2
-1.200, -7.929e-5, 1.993e-2, 2.280e+2
-0.896, -4.131e-5, 1.734e-2, 2.310e+2
-0.592, -1.223e-5, 1.898e-2, 2.340e+2
-0.288, -2.115e-6, 1.944e-2, 2.371e+2
-0.016, 6.807e-7, 1.984e-2, 2.401e+2
-0.320, -3.890e-6, 2.190e-2, 2.432e+2
-0.624, -1.628e-5, 2.076e-2, 2.462e+2
-0.928, -5.680e-5, 2.059e-2, 2.492e+2
-1.232, -1.265e-4, 2.119e-2, 2.523e+2
-1.536, -1.879e-4, 2.703e-2, 2.553e+2
-1.840, -2.006e-4, 1.059e-1, 2.584e+2
-1.856, -1.551e-4, 6.116e-2, 2.614e+2
-1.552, -1.118e-4, 2.258e-2, 2.644e+2
-1.248, -8.168e-5, 1.719e-2, 2.675e+2
-0.944, -4.604e-5, 1.803e-2, 2.705e+2
-0.640, -1.558e-5, 1.888e-2, 2.736e+2
-0.336, -3.126e-6, 1.840e-2, 2.766e+2
-0.032, 8.155e-7, 2.018e-2, 2.797e+2
-0.272, -3.072e-6, 2.167e-2, 2.827e+2
-0.576, -1.278e-5, 2.164e-2, 2.857e+2
-0.880, -4.596e-5, 2.015e-2, 2.888e+2
-1.184, -1.073e-4, 1.953e-2, 2.918e+2
-1.488, -1.706e-4, 2.456e-2, 2.949e+2
-1.792, -2.001e-4, 8.520e-2, 2.979e+2
-1.904, -1.648e-4, 8.978e-2, 3.010e+2
-1.600, -1.159e-4, 2.488e-2, 3.040e+2
-1.296, -8.391e-5, 1.843e-2, 3.070e+2
-0.992, -5.028e-5, 1.863e-2, 3.101e+2
-0.688, -1.908e-5, 1.780e-2, 3.131e+2
-0.384, -4.320e-6, 1.682e-2, 3.162e+2
-0.080, 3.036e-7, 1.926e-2, 3.192e+2
-0.224, -2.435e-6, 1.890e-2, 3.223e+2
-0.528, -1.025e-5, 1.826e-2, 3.253e+2
-0.832, -3.683e-5, 2.039e-2, 3.283e+2
-1.136, -8.926e-5, 2.063e-2, 3.314e+2
-1.440, -1.523e-4, 2.288e-2, 3.344e+2
-1.744, -1.966e-4, 7.009e-2, 3.375e+2
-1.952, -1.763e-4, 1.436e-1, 3.405e+2
-1.648, -1.192e-4, 2.878e-2, 3.436e+2
-1.344, -8.506e-5, 2.070e-2, 3.466e+2
-1.040, -5.339e-5, 2.049e-2, 3.496e+2
-0.736, -2.250e-5, 1.664e-2, 3.527e+2
-0.432, -5.657e-6, 1.812e-2, 3.557e+2
-0.128, -2.310e-7, 1.807e-2, 3.588e+2
-0.176, -1.722e-6, 1.954e-2, 3.618e+2
-0.480, -8.207e-6, 2.303e-2, 3.649e+2
-0.784, -2.929e-5, 1.872e-2, 3.679e+2
-1.088, -7.318e-5, 2.222e-2, 3.709e+2
-1.392, -1.322e-4, 2.215e-2, 3.740e+2
-1.696, -1.879e-4, 5.257e-2, 3.770e+2
-2.000, -1.949e-4, 2.845e-1, 3.801e+2
-1.696, -1.220e-4, 3.042e-2, 3.831e+2
-1.392, -8.590e-5, 1.949e-2, 3.862e+2
-1.088, -5.579e-5, 1.721e-2, 3.892e+2
-0.784, -2.563e-5, 1.786e-2, 3.922e+2
-0.480, -7.110e-6, 1.866e-2, 3.953e+2
-0.176, -8.635e-7, 1.803e-2, 3.983e+2
-0.128, -1.047e-6, 1.997e-2, 4.014e+2
-0.432, -6.597e-6, 1.928e-2, 4.044e+2
-0.736, -2.322e-5, 2.120e-2, 4.075e+2
-1.040, -5.952e-5, 2.117e-2, 4.105e+2
-1.344, -1.123e-4, 2.248e-2, 4.135e+2
-1.648, -1.729e-4, 3.981e-2, 4.166e+2
-1.952, -1.874e-4, 2.200e-1, 4.196e+2
-1.744, -1.246e-4, 3.760e-2, 4.227e+2
-1.440, -8.645e-5, 2.007e-2, 4.257e+2
-1.136, -5.769e-5, 1.985e-2, 4.288e+2
-0.832, -2.868e-5, 1.939e-2, 4.318e+2
-0.528, -8.890e-6, 1.951e-2, 4.348e+2
-0.224, -1.617e-6, 1.847e-2, 4.379e+2
-0.080, -4.913e-7, 1.982e-2, 4.409e+2
-0.384, -5.448e-6, 1.800e-2, 4.440e+2
-0.688, -1.835e-5, 1.890e-2, 4.470e+2
-0.992, -4.851e-5, 1.814e-2, 4.501e+2
-1.296, -9.478e-5, 1.802e-2, 4.531e+2
-1.600, -1.528e-4, 2.598e-2, 4.561e+2
-1.904, -1.803e-4, 1.594e-1, 4.592e+2
-1.792, -1.281e-4, 4.741e-2, 4.622e+2
-1.488, -8.736e-5, 2.250e-2, 4.653e+2
-1.184, -5.922e-5, 1.798e-2, 4.683e+2
-0.880, -3.143e-5, 1.888e-2, 4.714e+2
-0.576, -1.070e-5, 1.716e-2, 4.744e+2
-0.272, -2.298e-6, 1.812e-2, 4.774e+2
-0.032, 2.027e-7, 1.767e-2, 4.805e+2
-0.336, -4.397e-6, 1.763e-2, 4.835e+2
-0.640, -1.441e-5, 1.925e-2, 4.866e+2
-0.944, -3.941e-5, 1.815e-2, 4.896e+2
-1.248, -7.950e-5, 2.057e-2, 4.927e+2
-1.552, -1.309e-4, 2.635e-2, 4.957e+2
-1.856, -1.711e-4, 1.179e-1, 4.987e+2
[...]
-0.624, -1.273e-5, 1.779e-2, 5.140e+2
-0.320, -3.055e-6, 1.669e-2, 5.170e+2
-0.016, 8.124e-7, 1.833e-2, 5.200e+2
-0.288, -3.509e-6, 1.717e-2, 5.231e+2
-0.592, -1.137e-5, 1.831e-2, 5.261e+2
-0.896, -3.216e-5, 1.824e-2, 5.292e+2
-1.200, -6.643e-5, 1.887e-2, 5.322e+2
-1.504, -1.122e-4, 2.244e-2, 5.353e+2
-1.808, -1.598e-4, 8.444e-2, 5.383e+2
-1.888, -1.363e-4, 7.903e-2, 5.413e+2
-1.584, -9.053e-5, 2.587e-2, 5.444e+2
-1.280, -6.119e-5, 2.118e-2, 5.474e+2
-0.976, -3.599e-5, 2.015e-2, 5.505e+2
-0.672, -1.480e-5, 2.075e-2, 5.535e+2
-0.368, -3.903e-6, 1.997e-2, 5.566e+2
-0.064, 3.657e-7, 2.039e-2, 5.596e+2
-0.240, -2.683e-6, 1.698e-2, 5.626e+2
-0.544, -9.148e-6, 1.888e-2, 5.657e+2
-0.848, -2.637e-5, 1.748e-2, 5.687e+2
-1.152, -5.562e-5, 1.678e-2, 5.718e+2
-1.456, -9.686e-5, 2.107e-2, 5.748e+2
-1.760, -1.472e-4, 6.240e-2, 5.779e+2
-1.936, -1.423e-4, 1.289e-1, 5.809e+2
-1.632, -9.282e-5, 2.663e-2, 5.839e+2
-1.328, -6.206e-5, 2.199e-2, 5.870e+2
-1.024, -3.786e-5, 2.337e-2, 5.900e+2
-0.720, -1.691e-5, 2.130e-2, 5.931e+2
-0.416, -4.817e-6, 1.975e-2, 5.961e+2
-0.112, -1.517e-7, 2.007e-2, 5.992e+2
-0.192, -1.999e-6, 2.100e-2, 6.022e+2
-0.496, -7.375e-6, 1.990e-2, 6.052e+2
-0.800, -2.169e-5, 2.019e-2, 6.083e+2
-1.104, -4.660e-5, 2.050e-2, 6.113e+2
-1.408, -8.329e-5, 2.170e-2, 6.144e+2
-1.712, -1.335e-4, 4.591e-2, 6.174e+2
-1.984, -1.515e-4, 2.550e-1, 6.205e+2
-1.680, -9.472e-5, 3.061e-2, 6.235e+2
-1.376, -6.268e-5, 2.102e-2, 6.266e+2
-1.072, -3.950e-5, 2.065e-2, 6.296e+2
-0.768, -1.892e-5, 2.129e-2, 6.326e+2
-0.464, -5.846e-6, 2.083e-2, 6.357e+2
-0.160, -6.802e-7, 1.875e-2, 6.387e+2
-0.144, -1.310e-6, 1.755e-2, 6.418e+2
-0.448, -6.049e-6, 1.890e-2, 6.448e+2
-0.752, -1.777e-5, 1.875e-2, 6.479e+2
-1.056, -3.917e-5, 1.761e-2, 6.509e+2
-1.360, -7.151e-5, 1.838e-2, 6.539e+2
-1.664, -1.194e-4, 3.276e-2, 6.570e+2
-1.968, -1.508e-4, 2.743e-1, 6.600e+2
-1.728, -9.664e-5, 3.232e-2, 6.631e+2
-1.424, -6.351e-5, 1.928e-2, 6.661e+2
-1.120, -4.100e-5, 1.904e-2, 6.692e+2
-0.816, -2.085e-5, 2.123e-2, 6.722e+2
-0.512, -7.002e-6, 2.112e-2, 6.752e+2
-0.208, -1.292e-6, 1.978e-2, 6.783e+2
-0.096, -7.060e-7, 2.115e-2, 6.813e+2
-0.400, -5.045e-6, 1.906e-2, 6.844e+2
-0.704, -1.459e-5, 1.578e-2, 6.874e+2
-1.008, -3.311e-5, 1.685e-2, 6.905e+2
-1.312, -6.147e-5, 1.901e-2, 6.935e+2
-1.616, -1.046e-4, 2.861e-2, 6.965e+2
-1.920, -1.406e-4, 1.843e-1, 6.996e+2
-1.776, -9.871e-5, 3.941e-2, 7.026e+2
-1.472, -6.441e-5, 2.321e-2, 7.057e+2
-1.168, -4.235e-5, 1.978e-2, 7.087e+2
-0.864, -2.284e-5, 2.004e-2, 7.118e+2
-0.560, -8.395e-6, 1.893e-2, 7.148e+2
-0.256, -1.922e-6, 1.657e-2, 7.178e+2
-0.048, -5.857e-9, 1.775e-2, 7.209e+2
-0.352, -4.139e-6, 1.842e-2, 7.239e+2
-0.656, -1.180e-5, 1.829e-2, 7.270e+2
-0.960, -2.800e-5, 2.051e-2, 7.300e+2
-1.264, -5.290e-5, 1.993e-2, 7.331e+2
-1.568, -8.982e-5, 2.793e-2, 7.361e+2
-1.872, -1.298e-4, 1.283e-1, 7.391e+2
-1.824, -1.012e-4, 4.760e-2, 7.422e+2
-1.520, -6.551e-5, 2.002e-2, 7.452e+2
-1.216, -4.348e-5, 1.800e-2, 7.483e+2
-0.912, -2.456e-5, 1.863e-2, 7.513e+2
-0.608, -9.800e-6, 1.688e-2, 7.544e+2
-0.304, -2.492e-6, 1.820e-2, 7.574e+2
-0.000, 8.764e-7, 1.920e-2, 7.604e+2
-0.304, -3.329e-6, 1.944e-2, 7.635e+2
-0.608, -9.691e-6, 2.248e-2, 7.665e+2
-0.912, -2.388e-5, 1.989e-2, 7.696e+2
-1.216, -4.563e-5, 1.924e-2, 7.726e+2
-1.520, -7.753e-5, 2.208e-2, 7.757e+2
-1.824, -1.192e-4, 8.504e-2, 7.787e+2
-1.872, -1.044e-4, 6.590e-2, 7.817e+2
-1.568, -6.726e-5, 1.839e-2, 7.848e+2
-1.264, -4.453e-5, 1.725e-2, 7.878e+2
-0.960, -2.611e-5, 2.036e-2, 7.909e+2
-0.656, -1.123e-5, 2.102e-2, 7.939e+2
-0.352, -3.179e-6, 2.092e-2, 7.970e+2
-0.048, 5.257e-7, 1.846e-2, 8.000e+2
-0.002, 9.256e-7, 1.970e-2, 8.005e+2

File: 9号b-cds.txt
Apr. 27, 2023   12:22:54
Cyclic Voltammetry
File: 9Data Source:  Experiment
Instrument Model:  CHI660E
Ref. Electrode: Ag/AgCl
Header:
Note:

Init E (V) = 0
High E (V) = 0
Low E (V) = -2
Init P/N = N
Scan Rate (V/s) = 0.1
Segment = 40
Sample Interval (V) = 0.001
Quiet Time (sec) = 5
Sensitivity (A/V) = 0.001

Segment 1:

Segment 2:

Segment 3:

Segment 4:

Segment 5:

Segment 6:

Segment 7:

Segment 8:

Segment 9:

Segment 10:

Segment 11:

Segment 12:

Segment 13:

Segment 14:

Segment 15:

Segment 16:

Segment 17:

Segment 18:

Segment 19:

Segment 20:

Segment 21:

Segment 22:

Segment 23:

Segment 24:

Segment 25:

Segment 26:

Segment 27:

Segment 28:

Segment 29:

Segment 30:

Segment 31:

Segment 32:

Segment 33:

Segment 34:

Segment 35:

Segment 36:

Segment 37:

Segment 38:

Segment 39:

Segment 40:

Potential/V, Current/A, Voltage/V, Time/s

0.000, -8.063e-7, 2.829e-2, 1.000e-2
-0.108, -2.760e-6, 2.688e-2, 1.090e+0
-0.216, -6.746e-6, 2.663e-2, 2.170e+0
-0.324, -1.690e-5, 2.566e-2, 3.250e+0
-0.432, -3.609e-5, 2.581e-2, 4.330e+0
-0.540, -7.477e-5, 2.558e-2, 5.410e+0
-0.648, -1.460e-4, 2.557e-2, 6.490e+0
-0.756, -2.657e-4, 3.133e-2, 7.570e+0
-0.864, -3.783e-4, 1.551e-1, 8.650e+0
-0.972, -4.075e-4, 3.732e-1, 9.730e+0
-1.080, -4.511e-4, 3.659e-1, 1.081e+1
-1.188, -4.681e-4, 3.821e-1, 1.189e+1
-1.296, -4.598e-4, 3.328e-1, 1.297e+1
-1.404, -4.361e-4, 2.595e-1, 1.405e+1
-1.512, -4.075e-4, 1.571e-1, 1.513e+1
-1.620, -3.897e-4, 1.110e-1, 1.621e+1
-1.728, -3.990e-4, 9.720e-2, 1.729e+1
-1.836, -4.473e-4, 1.172e-1, 1.837e+1
-1.944, -4.787e-4, 2.739e-1, 1.945e+1
-1.948, -3.762e-4, 3.068e-1, 2.053e+1
-1.840, -2.906e-4, 1.734e-1, 2.161e+1
-1.732, -2.539e-4, 1.157e-1, 2.269e+1
-1.624, -2.309e-4, 9.458e-2, 2.377e+1
-1.516, -2.135e-4, 8.400e-2, 2.485e+1
-1.408, -1.972e-4, 7.988e-2, 2.593e+1
-1.300, -1.791e-4, 7.258e-2, 2.701e+1
-1.192, -1.580e-4, 6.741e-2, 2.809e+1
-1.084, -1.343e-4, 5.742e-2, 2.917e+1
-0.976, -1.097e-4, 5.555e-2, 3.025e+1
-0.868, -8.438e-5, 4.645e-2, 3.133e+1
-0.760, -5.991e-5, 2.664e-2, 3.241e+1
-0.652, -3.785e-5, 2.514e-2, 3.349e+1
-0.544, -2.257e-5, 2.472e-2, 3.457e+1
-0.436, -1.321e-5, 2.418e-2, 3.565e+1
-0.328, -7.456e-6, 2.255e-2, 3.673e+1
-0.220, -3.776e-6, 2.261e-2, 3.781e+1
-0.112, -1.372e-6, 2.304e-2, 3.889e+1
-0.004, 4.082e-7, 2.233e-2, 3.997e+1
-0.104, -2.628e-6, 2.165e-2, 4.105e+1
-0.212, -5.772e-6, 2.210e-2, 4.213e+1
-0.320, -1.136e-5, 2.315e-2, 4.321e+1
-0.428, -2.172e-5, 2.349e-2, 4.429e+1
-0.536, -4.165e-5, 2.364e-2, 4.537e+1
-0.644, -8.174e-5, 2.337e-2, 4.645e+1
-0.752, -1.430e-4, 2.438e-2, 4.753e+1
-0.860, -1.882e-4, 5.918e-2, 4.861e+1
-0.968, -2.126e-4, 9.618e-2, 4.969e+1
-1.076, -2.386e-4, 9.602e-2, 5.077e+1
-1.184, -2.645e-4, 1.138e-1, 5.185e+1
-1.292, -2.806e-4, 1.429e-1, 5.293e+1
-1.400, -2.863e-4, 1.291e-1, 5.401e+1
-1.508, -2.838e-4, 1.071e-1, 5.509e+1
-1.616, -2.865e-4, 8.918e-2, 5.617e+1
-1.724, -3.038e-4, 8.700e-2, 5.725e+1
-1.832, -3.481e-4, 1.057e-1, 5.833e+1
-1.940, -3.865e-4, 1.876e-1, 5.941e+1
-1.952, -3.142e-4, 1.891e-1, 6.049e+1
-1.844, -2.373e-4, 1.138e-1, 6.157e+1
-1.736, -2.067e-4, 8.046e-2, 6.265e+1
-1.628, -1.893e-4, 7.120e-2, 6.373e+1
-1.520, -1.761e-4, 5.994e-2, 6.481e+1
-1.412, -1.630e-4, 6.388e-2, 6.589e+1
-1.304, -1.477e-4, 5.599e-2, 6.697e+1
-1.196, -1.295e-4, 4.877e-2, 6.805e+1
-1.088, -1.092e-4, 4.494e-2, 6.913e+1
-0.980, -8.778e-5, 4.469e-2, 7.021e+1
-0.872, -6.607e-5, 3.643e-2, 7.129e+1
-0.764, -4.565e-5, 2.248e-2, 7.237e+1
-0.656, -2.831e-5, 2.193e-2, 7.345e+1
-0.548, -1.661e-5, 2.148e-2, 7.453e+1
-0.440, -9.608e-6, 2.257e-2, 7.561e+1
-0.332, -5.436e-6, 2.223e-2, 7.669e+1
-0.224, -2.669e-6, 2.238e-2, 7.777e+1
-0.116, -8.776e-7, 2.524e-2, 7.885e+1
-0.008, 5.798e-7, 2.189e-2, 7.993e+1
-0.100, -1.983e-6, 2.251e-2, 8.101e+1
-0.208, -4.647e-6, 2.262e-2, 8.209e+1
-0.316, -9.140e-6, 2.235e-2, 8.317e+1
-0.424, -1.726e-5, 2.246e-2, 8.425e+1
-0.532, -3.307e-5, 2.431e-2, 8.533e+1
-0.640, -6.567e-5, 2.430e-2, 8.641e+1
-0.748, -1.201e-4, 2.512e-2, 8.749e+1
-0.856, -1.735e-4, 4.361e-2, 8.857e+1
-0.964, -2.107e-4, 6.535e-2, 8.965e+1
-1.072, -2.451e-4, 7.118e-2, 9.073e+1
-1.180, -2.779e-4, 8.820e-2, 9.181e+1
-1.288, -2.990e-4, 9.193e-2, 9.289e+1
-1.396, -3.081e-4, 9.543e-2, 9.397e+1
-1.504, -3.075e-4, 8.600e-2, 9.505e+1
-1.612, -3.135e-4, 8.128e-2, 9.613e+1
-1.720, -3.248e-4, 8.339e-2, 9.721e+1
-1.828, -3.582e-4, 1.013e-1, 9.829e+1
-1.936, -3.993e-4, 1.641e-1, 9.937e+1
-1.956, -3.349e-4, 1.584e-1, 1.005e+2
-1.848, -2.511e-4, 9.965e-2, 1.015e+2
-1.740, -2.170e-4, 6.780e-2, 1.026e+2
-1.632, -1.972e-4, 5.537e-2, 1.037e+2
-1.524, -1.818e-4, 5.444e-2, 1.048e+2
-1.416, -1.665e-4, 4.718e-2, 1.059e+2
-1.308, -1.493e-4, 4.562e-2, 1.069e+2
-1.200, -1.297e-4, 4.304e-2, 1.080e+2
-1.092, -1.081e-4, 3.950e-2, 1.091e+2
-0.984, -8.566e-5, 3.711e-2, 1.102e+2
-0.876, -6.340e-5, 3.254e-2, 1.113e+2
-0.768, -4.299e-5, 2.403e-2, 1.123e+2
-0.660, -2.632e-5, 2.398e-2, 1.134e+2
-0.552, -1.514e-5, 2.401e-2, 1.145e+2
-0.444, -8.626e-6, 2.423e-2, 1.156e+2
-0.336, -4.791e-6, 2.330e-2, 1.167e+2
-0.228, -2.305e-6, 2.395e-2, 1.177e+2
-0.120, -6.088e-7, 2.403e-2, 1.188e+2
-0.012, 6.894e-7, 2.375e-2, 1.199e+2
-0.096, -1.543e-6, 2.375e-2, 1.210e+2
-0.204, -3.895e-6, 2.361e-2, 1.221e+2
-0.312, -7.573e-6, 2.301e-2, 1.231e+2
-0.420, -1.417e-5, 2.331e-2, 1.242e+2
-0.528, -2.680e-5, 2.375e-2, 1.253e+2
-0.636, -5.289e-5, 2.474e-2, 1.264e+2
-0.744, -9.836e-5, 2.366e-2, 1.275e+2
-0.852, -1.498e-4, 3.523e-2, 1.285e+2
-0.960, -1.904e-4, 5.204e-2, 1.296e+2
-1.068, -2.280e-4, 5.890e-2, 1.307e+2
-1.176, -2.630e-4, 6.750e-2, 1.318e+2
-1.284, -2.865e-4, 6.936e-2, 1.329e+2
-1.392, -2.983e-4, 7.888e-2, 1.339e+2
-1.500, -2.999e-4, 7.170e-2, 1.350e+2
-1.608, -3.107e-4, 6.914e-2, 1.361e+2
-1.716, -3.236e-4, 7.530e-2, 1.372e+2
-1.824, -3.531e-4, 1.035e-1, 1.383e+2
-1.932, -3.927e-4, 1.582e-1, 1.393e+2
-1.960, -3.388e-4, 1.574e-1, 1.404e+2
-1.852, -2.487e-4, 9.598e-2, 1.415e+2
-1.744, -2.133e-4, 6.500e-2, 1.426e+2
-1.636, -1.934e-4, 5.382e-2, 1.437e+2
-1.528, -1.781e-4, 4.670e-2, 1.447e+2
-1.420, -1.626e-4, 4.254e-2, 1.458e+2
-1.312, -1.451e-4, 3.871e-2, 1.469e+2
-1.204, -1.252e-4, 3.529e-2, 1.480e+2
-1.096, -1.037e-4, 3.413e-2, 1.490e+2
-0.988, -8.126e-5, 3.603e-2, 1.501e+2
-0.880, -5.930e-5, 2.865e-2, 1.512e+2
-0.772, -3.966e-5, 2.252e-2, 1.523e+2
-0.664, -2.395e-5, 2.133e-2, 1.534e+2
-0.556, -1.356e-5, 2.184e-2, 1.544e+2
-0.448, -7.566e-6, 2.188e-2, 1.555e+2
-0.340, -4.219e-6, 2.209e-2, 1.566e+2
-0.232, -1.904e-6, 2.107e-2, 1.577e+2
-0.124, -3.805e-7, 2.092e-2, 1.588e+2
-0.016, 7.681e-7, 1.968e-2, 1.598e+2
-0.092, -1.212e-6, 2.004e-2, 1.609e+2
-0.200, -3.312e-6, 2.176e-2, 1.620e+2
-0.308, -6.565e-6, 1.999e-2, 1.631e+2
-0.416, -1.220e-5, 2.197e-2, 1.642e+2
-0.524, -2.300e-5, 2.004e-2, 1.652e+2
-0.632, -4.528e-5, 1.947e-2, 1.663e+2
-0.740, -8.575e-5, 2.126e-2, 1.674e+2
-0.848, -1.366e-4, 2.724e-2, 1.685e+2
-0.956, -1.804e-4, 4.434e-2, 1.696e+2
-1.064, -2.219e-4, 4.857e-2, 1.706e+2
-1.172, -2.600e-4, 5.263e-2, 1.717e+2
-1.280, -2.859e-4, 6.014e-2, 1.728e+2
-1.388, -2.993e-4, 6.079e-2, 1.739e+2
-1.496, -3.014e-4, 6.046e-2, 1.750e+2
-1.604, -3.142e-4, 6.121e-2, 1.760e+2
-1.712, -3.284e-4, 7.328e-2, 1.771e+2
-1.820, -3.538e-4, 9.490e-2, 1.782e+2
-1.928, -3.918e-4, 1.488e-1, 1.793e+2
-1.964, -3.482e-4, 1.592e-1, 1.804e+2
-1.856, -2.552e-4, 8.760e-2, 1.814e+2
-1.748, -2.189e-4, 5.588e-2, 1.825e+2
-1.640, -2.002e-4, 4.907e-2, 1.836e+2
-1.532, -1.840e-4, 4.159e-2, 1.847e+2
-1.424, -1.676e-4, 3.501e-2, 1.857e+2
-1.316, -1.491e-4, 3.578e-2, 1.868e+2
-1.208, -1.283e-4, 3.196e-2, 1.879e+2
-1.100, -1.058e-4, 3.120e-2, 1.890e+2
-0.992, -8.256e-5, 3.022e-2, 1.901e+2
-0.884, -5.986e-5, 2.839e-2, 1.911e+2
-0.776, -3.962e-5, 2.348e-2, 1.922e+2
-0.668, -2.376e-5, 2.243e-2, 1.933e+2
-0.560, -1.325e-5, 2.250e-2, 1.944e+2
-0.452, -7.256e-6, 2.346e-2, 1.955e+2
-0.344, -3.849e-6, 2.227e-2, 1.965e+2
-0.236, -1.732e-6, 2.270e-2, 1.976e+2
-0.128, -2.009e-7, 2.281e-2, 1.987e+2
-0.020, 8.518e-7, 2.207e-2, 1.998e+2
-0.088, -8.992e-7, 2.283e-2, 2.009e+2
-0.196, -2.821e-6, 2.210e-2, 2.019e+2
-0.304, -5.777e-6, 2.115e-2, 2.030e+2
-0.412, -1.083e-5, 2.142e-2, 2.041e+2
-0.520, -2.044e-5, 2.067e-2, 2.052e+2
-0.628, -4.023e-5, 2.105e-2, 2.063e+2
-0.736, -7.735e-5, 2.041e-2, 2.073e+2
-0.844, -1.279e-4, 2.663e-2, 2.084e+2
-0.952, -1.749e-4, 4.177e-2, 2.095e+2
-1.060, -2.212e-4, 4.266e-2, 2.106e+2
-1.168, -2.637e-4, 4.978e-2, 2.117e+2
-1.276, -2.932e-4, 5.216e-2, 2.127e+2
-1.384, -3.085e-4, 5.194e-2, 2.138e+2
-1.492, -3.115e-4, 5.746e-2, 2.149e+2
-1.600, -3.280e-4, 5.646e-2, 2.160e+2
-1.708, -3.438e-4, 7.219e-2, 2.170e+2
-1.816, -3.639e-4, 9.176e-2, 2.181e+2
-1.924, -4.031e-4, 1.482e-1, 2.192e+2
-1.968, -3.722e-4, 1.539e-1, 2.203e+2
-1.860, -2.614e-4, 9.573e-2, 2.214e+2
-1.752, -2.188e-4, 6.365e-2, 2.224e+2
-1.644, -1.965e-4, 4.635e-2, 2.235e+2
-1.536, -1.797e-4, 4.285e-2, 2.246e+2
-1.428, -1.628e-4, 3.547e-2, 2.257e+2
-1.320, -1.441e-4, 3.142e-2, 2.268e+2
-1.212, -1.232e-4, 2.980e-2, 2.278e+2
-1.104, -1.008e-4, 2.882e-2, 2.289e+2
-0.996, -7.779e-5, 2.790e-2, 2.300e+2
-0.888, -5.574e-5, 2.402e-2, 2.311e+2
-0.780, -3.635e-5, 2.181e-2, 2.322e+2
-0.672, -2.151e-5, 1.966e-2, 2.332e+2
-0.564, -1.180e-5, 2.086e-2, 2.343e+2
-0.456, -6.292e-6, 2.033e-2, 2.354e+2
-0.348, -3.283e-6, 1.968e-2, 2.365e+2
-0.240, -1.395e-6, 2.129e-2, 2.376e+2
-0.132, -3.539e-8, 2.091e-2, 2.386e+2
-0.024, 9.164e-7, 2.120e-2, 2.397e+2
-0.084, -6.119e-7, 2.019e-2, 2.408e+2
-0.192, -2.341e-6, 2.049e-2, 2.419e+2
-0.300, -4.882e-6, 2.069e-2, 2.430e+2
-0.408, -9.164e-6, 2.090e-2, 2.440e+2
-0.516, -1.724e-5, 2.075e-2, 2.451e+2
-0.624, -3.408e-5, 1.984e-2, 2.462e+2
-0.732, -6.645e-5, 2.134e-2, 2.473e+2
-0.840, -1.137e-4, 2.663e-2, 2.484e+2
-0.948, -1.608e-4, 3.828e-2, 2.494e+2
-1.056, -2.091e-4, 3.946e-2, 2.505e+2
-1.164, -2.544e-4, 4.944e-2, 2.516e+2
-1.272, -2.867e-4, 4.990e-2, 2.527e+2
-1.380, -3.038e-4, 5.404e-2, 2.537e+2
-1.488, -3.081e-4, 5.199e-2, 2.548e+2
-1.596, -3.240e-4, 5.781e-2, 2.559e+2
-1.704, -3.409e-4, 6.772e-2, 2.570e+2
-1.812, -3.570e-4, 9.825e-2, 2.581e+2
-1.920, -3.945e-4, 1.476e-1, 2.592e+2
-1.972, -3.753e-4, 1.617e-1, 2.602e+2
-1.864, -2.600e-4, 8.709e-2, 2.613e+2
-1.756, -2.169e-4, 5.000e-2, 2.624e+2
-1.648, -1.962e-4, 4.494e-2, 2.635e+2
-1.540, -1.788e-4, 3.344e-2, 2.646e+2
-1.432, -1.614e-4, 3.107e-2, 2.656e+2
-1.324, -1.422e-4, 2.759e-2, 2.667e+2
-1.216, -1.209e-4, 2.674e-2, 2.678e+2
-1.108, -9.811e-5, 2.598e-2, 2.689e+2
-1.000, -7.508e-5, 2.661e-2, 2.700e+2
-0.892, -5.320e-5, 2.390e-2, 2.710e+2
-0.784, -3.439e-5, 2.006e-2, 2.721e+2
-0.676, -2.013e-5, 1.937e-2, 2.732e+2
-0.568, -1.084e-5, 1.992e-2, 2.743e+2
-0.460, -5.681e-6, 2.083e-2, 2.754e+2
-0.352, -2.845e-6, 2.060e-2, 2.764e+2
-0.244, -1.094e-6, 2.124e-2, 2.775e+2
-0.136, 1.326e-7, 2.065e-2, 2.786e+2
-0.028, 1.009e-6, 2.166e-2, 2.797e+2
-0.080, -3.658e-7, 2.115e-2, 2.808e+2
-0.188, -1.968e-6, 2.265e-2, 2.819e+2
-0.275, -3.684e-6, 1.883e-2, 2.827e+2